timestamp,accX,accY,accZ,geoX,geoY,geoZ,label
1.59244E+12,-1.0307361,1.0299703,-0.8491489,-1.1567719,1.91413,-5.360821,0
1.59244E+12,-1.0616381,1.1236343,-0.7518916,0.029153,4.244939,-4.932822,0
1.59244E+12,-0.6177519,0.8716277,-0.11684455,1.072767,4.95756,-4.159972,0
1.59244E+12,-0.33148965,0.56859696,-0.0442609,1.531147,5.5843678,-3.1717901,0
1.59244E+12,-0.23399279,0.4222319,0.27721518,2.8114128,4.80299,-2.162288,0
1.59244E+12,-0.0318126,0.23178966,0.3629741,3.2799199,4.06745,-1.031795,0
1.59244E+12,-0.4500669,0.0217043,0.76374125,3.6269028,3.871839,-0.22696501,0
1.59244E+12,-0.41964406,0.13836515,0.65211093,3.169589,2.640076,1.378964,0
1.59244E+12,-0.15422265,-0.04752565,0.90435714,3.19997,3.490211,0.508042,0
1.59244E+12,-0.01624185,0.27203405,0.44825393,2.605675,3.069141,1.159368,0
1.59244E+12,-0.5719978,0.26796168,0.6645676,0.59893,3.669299,2.045747,0
1.59244E+12,-0.80196583,0.4940969,0.42190343,0.466213,4.492251,2.473746,0
1.59244E+12,-0.97563964,0.64860666,0.17013635,-0.88973904,3.398002,3.344135,0
1.59244E+12,-0.94928914,0.67495716,0.2556557,-0.762352,2.769595,3.799317,0
1.59244E+12,-1.0520561,0.73005366,0.3347072,-0.975552,2.4428658,3.905917,0
1.59244E+12,-1.4420435,0.80311644,0.0553919,-0.860957,2.324007,3.88513,0
1.59244E+12,-1.8071177,1.181845,-0.3499267,-1.9642669,2.544669,4.423993,0
1.59244E+12,-2.1892,1.0793176,-0.045458652,-3.5664651,2.62302,4.191072,0
1.59244E+12,-2.5286422,1.124832,-0.46395248,-4.937341,1.2510779,3.189565,0
1.59244E+12,-2.3714976,1.3272518,-0.63139796,-3.9102502,1.3081089,4.002923,0
1.59244E+12,-2.6342838,1.0453014,-0.3518431,-5.560951,0.929146,2.807404,0
1.59244E+12,-2.4158142,1.1233947,-0.7264993,-5.252877,0.385486,1.275562,0
1.59244E+12,-2.4294686,0.9837371,-0.98689014,-5.484732,-0.605361,-0.990221,0
1.59244E+12,-2.3214316,1.083869,-1.1334947,-5.478869,1.052802,-1.651674,0
1.59244E+12,-2.2502851,0.9446904,-1.0326442,-4.473631,0.522467,-3.431894,0
1.59244E+12,-1.6715324,0.9904445,-0.84819067,-3.776467,1.277728,-4.626347,0
1.59244E+12,-1.3380787,0.8124589,-1.09876,-2.627852,1.993014,-5.691281,0
1.59244E+12,-1.1488342,0.64381564,-1.2106298,-0.817251,2.279235,-5.723794,0
1.59244E+12,-1.1488342,0.64381564,-1.2106298,0.814795,1.4370949,-5.422116,0
1.59244E+12,-1.0738552,0.5798558,-1.1521796,1.259317,1.4413589,-5.139626,0
1.59244E+12,-0.7710639,0.4648718,-1.1033114,1.594041,2.111873,-4.762795,0
1.59244E+12,-0.47761518,0.41336855,-0.99120206,2.551842,2.656599,-4.469112,0
1.59244E+12,-0.35113275,0.2305919,-0.5671986,2.6158018,2.806905,-3.637632,0
1.59244E+12,-0.27160215,0.20184591,-0.5657612,2.278946,3.234371,-2.996433,0
1.59244E+12,-0.12188341,0.14650986,-0.19901021,2.105188,3.856382,-2.048226,0
1.59244E+12,0.0184929,-0.036506347,-0.060550302,1.808307,3.5541708,-1.069105,0
1.59244E+12,0.11910389,0.04158695,-0.18272081,1.026929,4.178847,-0.082522,0
1.59244E+12,0.0146601,-0.051837552,0.43076676,1.6569351,3.329778,0.744694,0
1.59244E+12,-0.07612935,-0.0103954,0.036707,0.878222,3.170944,1.271298,0
1.59244E+12,-0.4677936,0.1012349,0.2053502,1.03599,2.30855,2.022295,0
1.59244E+12,-0.01815825,-0.091363296,0.48442593,1.430943,2.665127,1.755262,0
1.59244E+12,-0.22776452,-0.0860932,0.80422515,1.301957,2.217407,2.192322,0
1.59244E+12,-0.2133915,0.35755342,-0.16954556,-1.4099469,3.6922178,1.960467,0
1.59244E+12,-0.8115479,0.66154236,0.15097235,-0.11529,1.6007259,3.754545,0
1.59244E+12,-0.3312501,0.4265438,0.050600898,-0.77727604,2.2286,2.630981,0
1.59244E+12,-1.2860963,0.99787056,0.0328742,-0.994207,1.6924019,3.85315,0
1.59244E+12,-1.4897139,1.1260297,0.25829074,-1.077888,1.143412,4.678767,0
1.59244E+12,-1.9760004,1.4041474,0.06617165,-2.3219101,1.618315,4.898363,0
1.59244E+12,-2.2682514,1.5392535,-0.056957047,-3.944895,1.9535719,4.8940988,0
1.59244E+12,-2.6072147,1.5909964,-0.241171,-4.7737103,2.3021538,4.196402,0
1.59244E+12,-2.6484172,1.4772102,-0.00281875,-4.632998,0.584828,3.569594,0
1.59244E+12,-2.6625507,1.6017761,-0.1942192,-5.7762833,1.1263559,2.069199,0
1.59244E+12,-2.8517952,1.1957389,-0.7523707,-6.506493,1.103437,-1.069105,0
1.59244E+12,-2.754538,1.4700236,-0.6637372,-6.390299,0.28634802,1.198277,0
1.59244E+12,-2.4083881,1.3286891,-0.88053,-6.221871,2.149183,-3.609916,0
1.59244E+12,-1.927851,1.4029496,-1.0776796,-4.855792,3.5504398,-5.363486,0
1.59244E+12,-1.573796,1.2034044,-1.0872616,-2.722193,2.496166,-6.2472,0
1.59244E+12,-0.93683255,0.7298141,-1.3584322,0.135753,1.589533,-5.769099,0
1.59244E+12,-1.2595063,0.88959396,-1.189789,-0.697859,1.959968,-6.123011,0
1.59244E+12,-0.7439948,0.5317062,-1.3186669,0.885684,2.143853,-5.235033,0
1.59244E+12,-0.45126468,0.7547273,-1.300461,1.347262,3.0281,-5.141758,0
1.59244E+12,-0.48001066,0.54488146,-0.622295,2.540649,3.5872169,-3.288517,0
1.59244E+12,-0.42683053,0.5321854,-0.42825955,2.28321,3.644248,-2.628663,0
1.59244E+12,-0.26824844,0.4318139,-0.3666952,1.905846,3.960317,-1.794518,0
1.59244E+12,-0.15757635,0.27395046,-0.16499409,1.929831,4.684664,-0.887352,0
1.59244E+12,-0.2847774,0.3388685,0.06856715,1.929298,4.467733,0.046997,0
1.59244E+12,-0.30250412,0.22771731,0.3701606,1.09462,4.81365,1.834679,0
1.59244E+12,0.026398052,0.1951385,0.1746878,1.709169,4.841899,0.63329697,0
1.59244E+12,-0.52744156,0.3374312,0.34117505,0.47580698,3.233305,2.838318,0
1.59244E+12,-0.22824359,0.0720098,0.5023922,0.29085597,2.807971,3.711905,0
1.59244E+12,-1.1512297,0.51110494,0.2700287,-0.63763,1.08265,3.905917,0
1.59244E+12,-0.7250703,0.3225791,0.6830129,0.869161,0.083808005,3.928303,0
1.59244E+12,-1.1435641,0.7324492,0.3600995,-1.415277,2.13266,3.84249,0
1.59244E+12,-0.826879,0.9600217,0.03982115,-2.6971421,2.536141,3.68259,0
1.59244E+12,-1.4933071,1.1023144,-0.02869015,-3.765274,2.289362,4.353104,0
1.59244E+12,-1.3553264,1.4812825,-0.13984135,-3.2535942,1.560751,3.660204,0
1.59244E+12,-2.25843,1.688014,-0.4926985,-5.6760793,2.609695,3.80518,0
1.59244E+12,-1.9439007,1.9575078,-0.44981903,-5.153739,0.635463,2.610727,0
1.59244E+12,-2.4620473,1.8719885,-0.6249301,-6.481975,1.9461099,2.202982,0
1.59244E+12,-2.3801212,1.8537827,-0.95982105,-6.613093,0.694093,0.520301,0
1.59244E+12,-2.504927,1.6595075,-1.271715,-6.651469,1.244682,-0.490267,0
1.59244E+12,-2.2613044,1.4386426,-1.3462151,-5.662221,1.735042,-2.523129,0
1.59244E+12,-2.0387626,1.3318032,-1.5994195,-4.937341,3.154954,-4.096012,0
1.59244E+12,-1.4619261,1.5878823,-1.3090849,-2.9417892,4.878143,-5.649174,0
1.59244E+12,-0.8355028,1.3528836,-1.3201042,-0.049731,5.612617,-6.813779,0
1.59244E+12,-0.6903356,1.0029011,-1.3538808,2.168082,3.5797548,-5.304323,0
1.59244E+12,-0.608649,0.97271776,-1.5352201,2.925475,1.5831369,-4.397157,0
1.59244E+12,-0.33819705,0.9868512,-1.5196493,3.121086,2.343195,-3.930249,0
1.59244E+12,-0.065589145,0.8455168,-1.1416395,3.287382,4.070115,-3.2091,0
1.59244E+12,-0.05648625,0.7020263,-0.5185699,3.6540859,3.206122,-1.06644,0
1.59244E+12,0.02687715,0.799044,-0.8371714,3.9301798,3.800417,-2.067414,0
1.59244E+12,-0.10487535,0.44211453,-0.3532804,3.099766,3.509932,-0.023891998,0
1.59244E+12,-0.1257162,0.3321611,-0.2335054,2.200062,4.146867,0.669008,0
1.59244E+12,-0.11685286,0.2569424,-0.11444905,1.70224,4.097831,1.171094,0
1.59244E+12,-0.17266801,0.2152607,0.0117938,1.2252051,4.0877037,1.698231,0
1.59244E+12,-0.29388028,0.2497559,0.23577304,0.576011,2.8463469,3.332942,0
1.59244E+12,-0.18440595,0.29455176,0.07239995,0.41877598,3.7790968,2.443365,0
1.59244E+12,-0.76603335,0.5216452,0.2302634,-0.017750999,2.260047,3.684722,0
1.59244E+12,-0.2838192,0.3527624,0.261884,-0.607782,2.512156,3.776398,0
1.59244E+12,-1.1054757,0.8134171,0.00867965,-1.973328,2.682716,4.064751,0
1.59244E+12,-0.93347883,0.7255022,0.14330675,-1.484034,0.833206,3.692184,0
1.59244E+12,-1.4228795,1.049853,-0.14990245,-3.2818432,1.844307,4.255565,0
1.59244E+12,-1.1989002,1.2793418,-0.2737498,-3.989134,1.7003969,3.01101,0
1.59244E+12,-1.9867802,1.9975126,-0.47952324,-4.9181533,0.211195,2.465751,0
1.59244E+12,-1.8729938,1.577342,-0.5049156,-4.753989,0.747393,3.577056,0
1.59244E+12,-2.1834507,2.2207732,-0.85705405,-6.422812,-0.074493,1.557519,0
1.59244E+12,-2.6845894,2.1364517,-1.0580366,-6.600834,0.308734,1.08688,0
1.59244E+12,-2.2529202,2.085188,-1.154096,-6.509691,-0.003071,-0.747706,0
1.59244E+12,-2.278552,1.9896076,-1.4192779,-6.541138,1.873089,-2.097795,0
1.59244E+12,-1.998039,1.8394096,-1.5476767,-5.425569,1.9919479,-3.931315,0
1.59244E+12,-1.7079439,1.7706589,-1.5002458,-3.937433,4.636694,-5.288866,0
1.59244E+12,-1.0257056,1.7220303,-1.5040786,-1.702564,5.69843,-6.650681,0
1.59244E+12,-0.60457665,1.4465477,-1.5433648,1.1745701,3.982703,-6.248266,0
1.59244E+12,-0.3810765,1.0706937,-1.5637265,2.598213,2.04205,-5.244094,0
1.59244E+12,-0.25147995,0.72957456,-1.5186912,3.520303,2.279235,-4.194084,0
1.59244E+12,-0.11972745,0.942774,-1.4343696,3.387053,3.016907,-3.914792,0
1.59244E+12,-0.07708755,0.68094593,-0.58923715,3.3470778,3.612268,-1.836092,0
1.59244E+12,-0.10439625,0.6838205,-0.70805395,4.1972127,2.661929,-2.938869,0
1.59244E+12,-0.11014545,0.42247143,-0.41532382,3.029943,3.094192,-0.927327,0
1.59244E+12,-0.0040248,0.29407266,-0.19565651,1.996989,3.154954,0.34760898,0
1.59244E+12,-0.079243496,0.3278492,-0.14750695,2.941465,3.0590138,-0.127294,0
1.59244E+12,-0.0715779,0.2847302,-0.13409215,1.37178,3.83826,1.308075,0
1.59244E+12,-0.21027735,0.24232987,-0.0274924,1.38777,3.107517,2.165672,0
1.59244E+12,-0.37125495,0.14028154,0.20511064,1.7704641,1.8586979,2.97903,0
1.59244E+12,-0.5734352,0.0787172,0.28751585,1.2252051,1.711057,3.158118,0
1.59244E+12,-0.1942275,0.36210483,0.3217715,0.347354,3.619197,2.924664,0
1.59244E+12,-0.8328678,0.24664176,0.2743406,-0.250672,1.3619419,4.041832,0
1.59244E+12,-1.1593745,0.59782207,0.2820062,-0.774611,0.857724,3.876069,0
1.59244E+12,-0.809871,0.88480294,0.36560914,-1.4477899,1.5826039,3.70924,0
1.59244E+12,-1.2997507,1.2022067,-0.00952615,-3.517962,2.4476628,3.502436,0
1.59244E+12,-1.1064339,1.2628129,-0.07180915,-3.1619182,0.774043,4.041299,0
1.59244E+12,-1.8456852,1.5507519,-0.032283403,-4.238578,1.123158,3.783327,0
1.59244E+12,-1.8157415,1.7670656,-0.29794437,-4.865919,0.974984,3.580254,0
1.59244E+12,-2.2342353,1.9836187,-0.26967746,-5.62118,1.3336929,2.769028,0
1.59244E+12,-2.1621308,2.1695094,-0.6766729,-6.6589313,1.248946,1.479701,0
1.59244E+12,-2.592123,2.001585,-0.46371293,-6.156312,1.727047,0.453143,0
1.59244E+12,-2.4012017,1.8719885,-1.2518325,-6.524082,2.137457,-2.190004,0
1.59244E+12,-2.193991,1.6415415,-1.50863,-5.216633,2.8303568,-3.466006,0
1.59244E+12,-1.7177655,1.7656282,-1.3660978,-3.0702422,5.09081,-5.435441,0
1.59244E+12,-1.1977024,1.719395,-1.3572345,-0.77940804,4.546617,-6.059051,0
1.59244E+12,-1.0417554,1.6132746,-1.3038148,1.301424,2.988658,-5.871968,0
1.59244E+12,-0.65823585,1.0702146,-1.1181636,2.4948108,2.4844398,-5.204119,0
1.59244E+12,-0.3868257,1.0127227,-1.2906396,2.3359768,2.8927178,-4.831552,0
1.59244E+12,-0.16811654,0.95570976,-1.1988919,2.5534408,3.368687,-4.182891,0
1.59244E+12,-0.092179194,0.8026373,-0.91023415,3.198904,4.1783137,-3.007093,0
1.59244E+12,-0.0136068,0.81317747,-0.71164715,3.379058,3.7449849,-2.042363,0
1.59244E+12,-0.15038985,0.5812931,-0.4562869,3.500582,3.113913,-0.914002,0
1.59244E+12,-0.21746385,0.30078006,-0.19206324,3.5757349,3.4502358,0.30337,0
1.59244E+12,-0.11182229,0.259817,-0.052166052,2.830601,3.372951,0.561875,0
1.59244E+12,-0.1879992,-0.04081825,0.13875529,2.241103,3.24663,1.364573,0
1.59244E+12,-0.2052468,0.0528458,0.08821025,1.6078991,2.465252,1.865593,0
1.59244E+12,-0.29268256,0.0461384,0.067848496,1.372846,2.1971529,2.496132,0
1.59244E+12,-0.5219319,0.04062875,0.16223119,1.296627,2.0516438,2.758901,0
1.59244E+12,-0.36167294,0.1410002,0.29278594,1.223073,2.460988,2.906009,0
1.59244E+12,-0.5209737,0.2210099,0.16199166,0.159738,2.603832,2.87243,0
1.59244E+12,-0.62398016,0.4236692,0.1976846,0.110169,2.0921519,3.425151,0
1.59244E+12,-1.0288197,0.5592545,0.38645,-0.29810902,1.010695,3.652742,0
1.59244E+12,-0.3911376,0.8788142,0.13420385,-1.348652,2.229666,2.875628,0
1.59244E+12,-1.61428,1.0005057,0.19552866,-3.014277,1.910932,4.64199,0
1.59244E+12,-1.0534933,1.409657,-0.050010096,-3.0126781,0.696225,3.566929,0
1.59244E+12,-1.8694006,1.9256477,-0.5166535,-5.916995,2.777057,2.149149,0
1.59244E+12,-1.8866482,1.4053451,-0.2627305,-5.3802643,1.3997849,4.795494,0
1.59244E+12,-2.0301387,1.8293486,-0.6172645,-6.691977,3.348433,2.36075,0
1.59244E+12,-1.7146513,2.0248215,-0.44838175,-5.740572,1.8741549,0.5219,0
1.59244E+12,-2.1202095,1.845638,-1.0149175,-5.762958,0.253302,-1.185299,0
1.59244E+12,-2.1791387,1.8415657,-0.87190616,-6.230399,1.0213549,0.336416,0
1.59244E+12,-2.26897,1.625252,-1.3663374,-5.532169,1.694534,-2.091932,0
1.59244E+12,-1.9846243,1.5914755,-1.2937537,-4.719344,3.852118,-4.353451,0
1.59244E+12,-1.4760596,1.5184127,-1.2384176,-2.498866,5.6941657,-5.547371,0
1.59244E+12,-1.0453486,1.4858339,-1.3263324,-0.69093,4.43522,-6.296769,0
1.59244E+12,-0.8805383,1.0551231,-1.404905,2.1035888,2.542537,-4.934421,0
1.59244E+12,-1.104278,1.2139447,-1.31172,1.359521,2.608096,-5.491406,0
1.59244E+12,-0.6639851,1.0354799,-1.376159,2.633924,3.0296988,-4.530407,0
1.59244E+12,-0.5988275,0.959303,-1.2120671,3.0267448,4.0877037,-3.679206,0
1.59244E+12,-0.3901794,0.7657466,-0.8239962,3.677538,4.085039,-2.821076,0
1.59244E+12,-0.09193965,0.7616743,-0.48048145,3.286316,3.892093,-1.58878,0
1.59244E+12,-0.11349915,0.53649724,-0.30608904,3.344413,3.059547,-0.403921,0
1.59244E+12,-0.0548094,0.42917886,-0.2205697,2.7469199,2.922566,0.485656,0
1.59244E+12,-0.0653496,0.2334665,0.059464253,2.6818938,3.285006,1.303278,0
1.59244E+12,-0.11685286,0.1922639,0.0975527,2.461232,2.947084,1.822953,0
1.59244E+12,-0.1573368,0.08087315,0.13085015,2.089731,2.490836,2.207779,0
1.59244E+12,-0.44503635,-0.049202498,0.38429406,2.3029308,2.1641068,2.756769,0
1.59244E+12,-0.42611188,0.00182165,0.30404478,1.596173,2.508425,2.777023,0
1.59244E+12,-0.49270684,-0.0621382,0.34165415,0.789211,2.629416,2.715195,0
1.59244E+12,-0.45318103,0.16567385,0.1583984,0.200779,2.817565,2.852709,0
1.59244E+12,-0.7998099,0.12974134,0.19624731,-0.140874,1.5165119,3.429948,0
1.59244E+12,-0.85514593,0.32377684,0.23649171,-0.012421,1.235621,3.174641,0
1.59244E+12,-0.9176685,0.35300195,0.116477154,-1.328931,1.8555,3.574924,0
1.59244E+12,-1.0448695,0.5252384,0.059464253,-2.627852,2.527613,3.518959,0
1.59244E+12,-1.2760353,0.65770954,-0.0873799,-2.914606,1.42377,3.379846,0
1.59244E+12,-1.3986849,0.78419197,-0.052166052,-4.570104,2.18596,2.732784,0
1.59244E+12,-1.5412171,1.2290363,-0.7296134,-3.6314912,0.742063,2.804206,0
1.59244E+12,-1.4624052,1.0170345,-0.48838657,-3.717304,0.41107,2.422045,0
1.59244E+12,-1.9556386,1.0582372,-0.384901,-3.492911,0.391882,1.378964,0
1.59244E+12,-1.57164,1.2934753,-0.2023639,-5.89301,2.799443,-0.00044,0
1.59244E+12,-1.5091174,1.634355,-0.57390594,-4.985311,1.635904,-0.581943,0
1.59244E+12,-1.4568956,1.5119449,-0.4826374,-5.257141,0.619473,-1.2135481,0
1.59244E+12,-1.6899776,1.5644063,-0.72051054,-5.193181,0.697824,-1.965611,0
1.59244E+12,-1.6916546,1.4362471,-1.0872616,-3.7157052,4.063186,-4.122129,0
1.59244E+12,-1.8121483,1.6154305,-1.0331233,-4.67777,2.000476,-2.959123,0
1.59244E+12,-0.8968276,1.1092613,-1.1114562,0.848907,2.691244,-4.542133,0
1.59244E+12,-0.9497682,1.1976553,-1.0647439,-0.439354,4.066917,-5.216378,0
1.59244E+12,-1.3649083,1.2620943,-1.0285718,-1.752133,4.11009,-5.044752,0
1.59244E+12,-0.8649675,0.9516374,-1.1917055,1.80884,2.015933,-4.196216,0
1.59244E+12,-0.76938707,0.8455168,-1.2091925,1.763535,2.200351,-3.968092,0
1.59244E+12,-0.670932,0.6842996,-1.2075157,2.388211,2.6016998,-3.297578,0
1.59244E+12,-0.3877839,0.74298936,-1.3981974,3.215427,2.810103,-2.531657,0
1.59244E+12,-0.20836096,0.6804668,-1.2834531,2.896693,3.68902,-1.8920571,0
1.59244E+12,-0.2315973,0.48858723,-0.92173254,1.9607451,4.134608,-1.73269,0
1.59244E+12,-0.22512946,0.42007595,-0.61367124,2.6978838,4.022145,-0.538237,0
1.59244E+12,0.1138338,0.4730165,-0.7782421,2.091863,3.361758,1.345385,0
1.59244E+12,0.0678402,0.36857268,-0.30321446,1.6329501,2.6960409,1.874121,0
1.59244E+12,0.013222801,0.118722044,-0.1496629,1.7864541,2.267509,2.64324,0
1.59244E+12,-0.07660845,0.1203989,-0.21410184,1.6238891,2.072964,2.802074,0
1.59244E+12,-0.15925321,0.04014965,-0.082349345,1.663864,1.6327059,3.09096,0
1.59244E+12,-0.18177089,0.08087315,-0.04689595,1.888257,0.885973,3.49071,0
1.59244E+12,-0.2593851,0.1548941,-0.01048435,1.497568,2.088954,3.367054,0
1.59244E+12,-0.6369159,0.11632655,0.23481485,0.604793,1.3789979,3.668732,0
1.59244E+12,-0.45605564,0.1467494,0.27985024,0.578676,2.153447,3.279642,0
1.59244E+12,-0.7056667,0.11345194,0.26475862,-0.53582704,1.0048319,3.957085,0
1.59244E+12,-0.62996894,0.30892473,0.33494675,-1.22393,2.135325,3.239667,0
1.59244E+12,-0.95120555,0.35707432,0.29230684,-3.094227,1.793139,3.657006,0
1.59244E+12,-0.8546668,0.61387193,0.22092095,-2.835722,0.723941,3.682057,0
1.59244E+12,-1.5057638,1.4230717,-0.26680285,-3.6693342,0.34870902,3.65061,0
1.59244E+12,-0.9948036,0.9791857,-0.21889286,-4.323325,0.978715,3.844089,0
1.59244E+12,-1.7460324,1.5423677,-0.5413271,-3.709842,0.182946,3.129869,0
1.59244E+12,-2.3173592,1.5347021,-0.279499,-5.0599313,2.2019498,1.348583,0
1.59244E+12,-2.1700358,1.4633162,-0.2042803,-5.600926,1.3587439,0.826243,0
1.59244E+12,-1.9736049,1.7735335,-0.32477397,-5.6712823,0.571503,-0.742376,0
1.59244E+12,-2.1065552,1.6190237,-0.55354416,-5.744836,1.6673509,-1.606369,0
1.59244E+12,-2.1436853,1.5471587,-1.1641572,-3.4380121,4.533292,-5.109245,0
1.59244E+12,-2.0897868,1.7004707,-0.823517,-4.351574,2.877261,-3.441488,0
1.59244E+12,-1.9168316,1.4429544,-1.0096474,-1.1679649,3.1704109,-5.467421,0
1.59244E+12,-1.3852701,1.6053693,-1.2139835,0.29192197,2.555862,-5.414121,0
1.59244E+12,-1.2530385,1.3708498,-1.14667,1.13193,2.216874,-5.212114,0
1.59244E+12,-0.7574096,0.8958222,-1.1845189,2.337043,2.58571,-4.116799,0
1.59244E+12,-1.0786461,1.1392051,-1.0815123,1.654803,1.79687,-4.835283,0
1.59244E+12,-0.61200273,0.7063382,-1.2697986,2.614203,2.511623,-3.574738,0
1.59244E+12,-0.2708835,0.53673685,-1.1442745,2.722935,3.009978,-2.679298,0
1.59244E+12,-0.0457065,0.54224646,-0.981141,2.643518,3.119243,-1.522688,0
1.59244E+12,0.0050781,0.40043288,-0.72290605,2.357297,3.030232,-0.924662,0
1.59244E+12,-0.07517115,0.3882158,-0.45461005,1.772596,3.514196,0.074713,0
1.59244E+12,0.01777425,0.25574464,-0.3211807,1.6857171,3.4491699,0.982945,0
1.59244E+12,0.0798177,0.13788605,-0.2215279,1.293429,2.805306,1.640667,0
1.59244E+12,0.0400524,0.124231696,-0.025096899,1.368049,2.632081,2.529178,0
1.59244E+12,-0.029656649,0.09524615,-0.08282845,1.612696,1.4285669,2.980096,0
1.59244E+12,-0.12547664,0.16088286,0.0534755,2.445775,0.711149,3.355328,0
1.59244E+12,-0.23710695,0.1453121,0.0362279,1.6452091,2.466851,3.530685,0
1.59244E+12,-0.5099544,0.19441985,0.34476832,0.190652,2.053243,3.609569,0
1.59244E+12,-0.6381136,0.16974619,0.38477316,-0.663214,2.16997,3.182636,0
1.59244E+12,-0.7701057,0.08662235,0.36369276,-1.6807109,2.115604,3.702311,0
1.59244E+12,-0.75764906,0.508949,0.21852545,-2.606532,1.5165119,3.752413,0
1.59244E+12,-0.9308437,0.5410487,0.045809902,-2.572953,0.999502,3.670864,0
1.59244E+12,-1.2935225,0.7633511,-0.1659523,-4.178349,1.4546839,3.486446,0
1.59244E+12,-1.1989002,0.89773864,-0.1434346,-4.010454,0.48036,3.070706,0
1.59244E+12,-1.557267,1.150943,-0.45652646,-3.849488,0.217591,2.613925,0
1.59244E+12,-1.6518892,1.3852229,-0.46035925,-5.865827,2.522816,0.905127,0
1.59244E+12,-1.9716885,1.3147953,-0.23590091,-4.724141,2.0505779,0.017682001,0
1.59244E+12,-1.8013685,1.400075,-0.6177436,-3.779665,0.174418,-0.97956103,0
1.59244E+12,-2.0095372,1.342583,-0.5214445,-4.995971,1.5842029,-2.44691,0
1.59244E+12,-2.1154184,1.3701313,-0.4653898,-4.5487843,2.468983,-3.447884,0
1.59244E+12,-2.0066628,1.5679996,-0.88196725,-2.87623,2.947084,-4.5416,0
1.59244E+12,-1.7381274,1.5591362,-1.1960173,-1.232458,2.997186,-5.018102,0
1.59244E+12,-1.6061351,1.5404513,-1.1306202,0.106971,2.2755039,-5.054346,0
1.59244E+12,-1.1651237,1.4470268,-1.1586475,1.160179,1.303312,-4.654063,0
1.59244E+12,-0.8172971,1.1018353,-1.3490897,1.930897,0.623204,-4.135987,0
1.59244E+12,-0.7480671,1.0730892,-1.549114,2.566766,3.297265,-4.101342,0
1.59244E+12,-0.88676655,0.82707137,-1.5356991,2.91215,3.394271,-3.883878,0
1.59244E+12,-0.6644641,0.91235125,-1.2537489,3.12002,3.037694,-3.051865,0
1.59244E+12,-0.2196198,0.7413125,-0.90376633,3.161594,2.674188,-2.040764,0
1.59244E+12,-0.12978855,0.633515,-0.7806376,2.616335,2.823428,-1.184233,0
1.59244E+12,-0.1190088,0.5719506,-0.49293804,2.525725,3.086197,-0.460952,0
1.59244E+12,-0.06175635,0.38222703,-0.43448788,2.520928,2.668858,0.542154,0
1.59244E+12,-0.02294925,0.41169173,-0.2497948,2.8236718,2.276037,1.093276,0
1.59244E+12,-0.0543303,0.2473604,-0.1443928,2.424988,2.8745959,1.789374,0
1.59244E+12,-0.0605586,0.25382823,-0.0021001,2.8764389,1.9157289,2.386334,0
1.59244E+12,-0.18608281,0.1788491,0.2144531,2.508136,1.9615669,2.635245,0
1.59244E+12,-0.26537386,0.104349054,0.30476347,1.8989171,2.019131,2.883623,0
1.59244E+12,-0.268488,0.149624,0.26451904,1.267845,3.142695,3.021137,0
1.59244E+12,-0.54181457,0.09955805,0.42932945,0.129357,2.478044,3.216215,0
1.59244E+12,-0.43449616,0.28209513,0.372077,0.211439,1.2676009,3.806246,0
1.59244E+12,-0.53151387,0.28496975,0.18977945,-0.697859,2.046314,3.606371,0
1.59244E+12,-1.0326525,0.5204474,0.30811715,-1.9962469,2.068167,4.06102,0
1.59244E+12,-0.8395752,0.626568,0.10449965,-3.959286,3.364956,3.079767,0
1.59244E+12,-1.5124711,0.79233664,0.0803051,-4.6831,2.890586,3.538147,0
1.59244E+12,-1.0510979,1.1241133,-0.08330755,-4.558378,1.5788729,2.395395,0
1.59244E+12,-1.6281738,1.1964575,-0.14535101,-5.342421,1.331561,2.183794,0
1.59244E+12,-1.8308331,1.6619031,-0.28452954,-5.719785,1.5842029,1.165764,0
1.59244E+12,-1.7220774,1.5598549,-0.45652646,-5.43463,-0.019593999,0.109891005,0
1.59244E+12,-2.1441646,1.8178501,-0.36406013,-6.403091,1.4877299,-0.971566,0
1.59244E+12,-2.0351691,1.8600109,-0.5885185,-5.0892463,2.0185978,-2.493814,0
1.59244E+12,-2.2627416,1.9213358,-0.9363451,-4.70442,4.079176,-4.353984,0
1.59244E+12,-2.0924218,1.6882536,-0.84579515,-3.0883641,5.146775,-5.663565,0
1.59244E+12,-1.687103,1.840847,-1.0175526,0.088849,2.424211,-5.498335,0
1.59244E+12,-1.0379226,1.5646459,-1.0542037,1.218276,1.489862,-5.531914,0
1.59244E+12,-1.0527747,1.3195862,-1.1351717,1.572721,2.1971529,-4.768125,0
1.59244E+12,-0.53414893,1.096086,-1.2688406,2.4351149,1.5671469,-3.922254,0
1.59244E+12,-0.3916167,0.76454884,-1.2997425,3.0901718,1.598594,-3.264532,0
1.59244E+12,-0.2608224,0.62297475,-1.3445383,2.97078,2.895383,-2.911686,0
1.59244E+12,-0.27112305,0.46127853,-1.1449931,3.0059578,3.7913558,-2.243304,0
1.59244E+12,-0.24764714,0.4394795,-0.9164624,2.529456,4.309965,-1.598374,0
1.59244E+12,-0.273279,0.27610642,-0.63091886,1.9820651,4.659613,-0.67735,0
1.59244E+12,-0.1132596,0.34294087,-0.54539955,1.9239681,3.781762,0.469133,0
1.59244E+12,0.0405315,0.35156465,-0.49868727,2.7847629,2.669924,2.205114,0
1.59244E+12,0.0438852,0.46894416,-0.3139942,2.551842,2.563324,2.789282,0
1.59244E+12,-0.16955385,0.38510165,-0.0318043,2.673899,1.5372989,3.123473,0
1.59244E+12,-0.3173562,0.30078006,0.2896718,1.714499,1.1050359,3.654341,0
1.59244E+12,-0.20740275,0.355637,0.07479545,2.215519,1.5090499,3.400633,0
1.59244E+12,-0.45366016,0.3767174,0.32440656,0.398522,2.466851,3.239667,0
1.59244E+12,-0.7097391,0.231071,0.47556263,0.104839005,2.1753,3.672996,0
1.59244E+12,-0.72938216,0.55518216,0.2202023,-1.2436509,2.849012,3.462994,0
1.59244E+12,-0.9157521,0.4174409,0.54910445,-1.8422099,2.021263,4.291809,0
1.59244E+12,-0.84963626,0.8138962,0.0640157,-2.7328532,1.8117939,3.819571,0
1.59244E+12,-1.2949598,1.0040989,0.2614049,-4.82701,2.0345879,3.580254,0
1.59244E+12,-1.6202686,1.745506,-0.34585434,-5.189983,0.25117,2.55796,0
1.59244E+12,-1.5251672,1.4156458,0.1483373,-4.913889,1.6881379,3.686854,0
1.59244E+12,-2.0097768,1.814736,-0.082349345,-6.491569,1.064528,1.717419,0
1.59244E+12,-2.038523,1.9400208,-0.2780617,-5.659556,0.897166,0.767613,0
1.59244E+12,-2.2462127,2.0545256,-0.703742,-5.79707,1.809662,-0.898545,0
1.59244E+12,-2.2687306,1.8010817,-0.56528217,-5.399985,3.121908,-2.871711,0
1.59244E+12,-2.376528,1.7086155,-0.7986039,-4.3606353,5.193679,-4.805435,0
1.59244E+12,-2.1702754,1.735445,-0.91215056,-2.659832,5.906833,-6.105955,0
1.59244E+12,-1.6688973,1.7344868,-0.9284399,-0.006558,3.154954,-5.748845,0
1.59244E+12,-1.2092009,1.6834627,-1.0477359,1.327541,1.442958,-5.353892,0
1.59244E+12,-1.1342218,1.3816297,-1.2077553,1.733154,1.8704239,-5.134829,0
1.59244E+12,-1.1071526,1.0903369,-1.2300334,2.1318378,2.331469,-4.891248,0
1.59244E+12,-0.85035497,0.99116313,-1.4494612,3.3566718,3.2706149,-3.975554,0
1.59244E+12,-0.60409755,1.0340426,-1.5407298,3.533095,3.676228,-3.285319,0
1.59244E+12,-0.030375298,0.85438013,-0.6721214,4.124725,1.534634,-1.076567,0
1.59244E+12,-0.41078073,0.8773769,-1.0141989,3.96749,2.322408,-2.253964,0
1.59244E+12,-0.035405852,0.79616946,-0.32237846,2.8689768,3.282341,-0.347956,0
1.59244E+12,-0.1132596,0.4509779,-0.0011419,2.122777,5.472971,0.497915,0
1.59244E+12,-0.09816795,0.3494087,0.0280832,1.369115,5.756527,1.432264,0
1.59244E+12,-0.00570165,0.28496975,0.19504955,0.685809,4.912255,2.657631,0
1.59244E+12,-0.21890116,0.29742634,0.12941286,0.751901,2.091619,3.138397,0
1.59244E+12,0.09778395,0.2526305,0.30284706,1.421349,1.885348,3.1869,0
1.59244E+12,-0.49917465,0.25239095,0.47819766,-0.103030995,2.3170779,3.557868,0
1.59244E+12,-0.41533214,0.3494087,0.247511,-0.359404,1.3992519,3.594645,0
1.59244E+12,-0.4275492,0.48810816,0.2087039,-0.137143,0.947268,4.478892,0
1.59244E+12,-0.69704294,0.79664856,0.30045155,-1.72495,0.510208,4.955927,0
1.59244E+12,-0.7432761,0.8227595,0.3730352,-2.2206402,0.54698503,4.927678,0
1.59244E+12,-1.288492,1.3387501,0.4621478,-3.523292,1.9620999,5.738371,0
1.59244E+12,-1.7601658,1.9119934,-0.0212641,-5.524174,2.323474,4.117518,0
1.59244E+12,-2.1566212,1.8192875,-0.03108565,-4.991174,1.4839989,3.582919,0
1.59244E+12,-2.161412,2.302939,-0.2818945,-5.791207,1.447755,1.931152,0
1.59244E+12,-2.5353496,2.079918,-0.1985311,-6.475046,2.134259,0.685531,0
1.59244E+12,-2.494147,2.020749,-0.47042036,-5.7666893,1.9157289,-1.613298,0
1.59244E+12,-2.5937998,1.8022795,-0.7281762,-5.287522,4.08877,-3.687734,0
1.59244E+12,-2.0617595,1.69544,-0.9313146,-2.00744,4.648953,-6.31116,0
1.59244E+12,-2.4277918,1.6602262,-0.97563136,-3.813244,5.419671,-5.760571,0
1.59244E+12,-1.3445466,1.7138855,-1.000784,0.088316,2.756803,-5.793084,0
1.59244E+12,-0.9749209,1.5941105,-1.1380461,0.751901,1.806464,-5.158814,0
1.59244E+12,-0.9746814,1.170107,-1.0074915,1.943689,1.705727,-4.348654,0
1.59244E+12,-0.7389642,1.0520089,-1.2983052,2.273083,2.774925,-3.46494,0
1.59244E+12,-0.5746329,0.8040746,-1.1313388,2.841261,3.1911979,-2.907955,0
1.59244E+12,-0.43928713,0.4596017,-0.68529665,2.7698388,3.432114,-1.403829,0
1.59244E+12,-0.5425332,0.63471276,-0.8874769,2.8567178,3.6677,-2.118049,0
1.59244E+12,-0.26681116,0.26341027,-0.46562934,2.232575,2.9454849,-0.47481,0
1.59244E+12,-0.1717098,0.31898585,-0.27255207,2.094528,3.1336339,0.376391,0
1.59244E+12,-0.09768885,0.15225905,-0.3245344,1.934095,2.981729,1.154038,0
1.59244E+12,-0.024386551,0.17094395,-0.22775619,2.5939488,2.1518478,1.887979,0
1.59244E+12,-0.050497502,0.20711601,-0.2914765,3.154132,2.037786,2.285597,0
1.59244E+12,-0.21985936,0.2162189,-0.0720487,2.8151438,1.826718,2.372476,0
1.59244E+12,-0.3379575,0.14411435,0.1617521,2.819408,1.901338,2.319176,0
1.59244E+12,-0.31040925,0.13453235,0.18211386,2.2459,2.454592,2.479609,0
1.59244E+12,-0.39233536,0.1788491,0.42070565,-0.47399902,3.1458929,3.022203,0
1.59244E+12,-0.25914556,0.1836401,0.496643,-0.192042,1.7339759,3.99706,0
1.59244E+12,-0.32334495,0.5300294,0.16007525,-1.2766969,1.711057,4.015182,0
1.59244E+12,-0.7468694,0.7099315,0.3557876,-1.645,1.160468,4.369627,0
1.59244E+12,-0.8103501,0.9197772,0.14905594,-2.1374922,0.78417003,4.376556,0
1.59244E+12,-1.2983134,1.4369657,0.23098204,-3.254127,1.4259019,5.034278,0
1.59244E+12,-1.3596382,1.5179336,0.06760895,-3.8185742,1.2249609,4.345642,0
1.59244E+12,-1.9695326,1.7931764,0.08964755,-5.458082,2.2819,3.645813,0
1.59244E+12,-2.033253,1.6947215,0.05898515,-5.616916,1.556487,2.144352,0
1.59244E+12,-2.3343673,2.0102088,-0.24452469,-6.200018,2.143853,1.236653,0
1.59244E+12,-2.2536387,2.1230369,-0.22033015,-6.366314,1.87149,-1.3883721,0
1.59244E+12,-2.4397693,1.822162,-0.37843317,-6.034788,3.716203,-3.522504,0
1.59244E+12,-2.546848,1.8154547,-0.7806376,-4.440052,5.899371,-5.579884,0
1.59244E+12,-2.160933,1.8683952,-0.9351474,-3.335676,5.631805,-5.958847,0
1.59244E+12,-1.8052013,1.8830078,-0.9066409,-0.603518,2.4625869,-6.136336,0
1.59244E+12,-1.3443071,1.7249048,-1.1481073,0.961903,1.651361,-5.539376,0
1.59244E+12,-1.1720706,1.4496619,-1.2024852,1.552467,1.6215129,-5.461558,0
1.59244E+12,-1.1517088,1.30689,-1.3450174,2.243768,2.4258099,-5.206251,0
1.59244E+12,-0.7130928,1.0067339,-1.0690558,2.962785,3.956586,-3.583266,0
1.59244E+12,-1.0149257,1.2053208,-1.208953,2.378084,3.8499858,-4.503757,0
1.59244E+12,-0.44934827,0.7755681,-0.7710556,2.754915,3.526455,-2.465565,0
1.59244E+12,-0.20021625,0.587761,-0.48479334,2.6403198,3.107517,-1.474185,0
1.59244E+12,-0.1520667,0.5499121,-0.33842832,2.413262,3.302062,-0.257346,0
1.59244E+12,-0.0375618,0.4160036,-0.3192643,2.575827,3.503003,0.659947,0
1.59244E+12,-0.074452505,0.3599489,-0.231589,2.471359,3.578156,1.492493,0
1.59244E+12,-0.0552885,0.24640219,-0.05312425,2.48575,2.977465,2.341029,0
1.59244E+12,-0.1693143,0.25143275,0.061141096,2.4777548,1.756895,2.703469,0
1.59244E+12,-0.18608281,0.125669,0.21732768,2.0561519,2.081492,2.714129,0
1.59244E+12,-0.42683053,0.2104697,0.45352402,1.3824401,2.052177,3.012076,0
1.59244E+12,-0.402636,0.255026,0.32871845,0.42996898,3.036095,3.234337,0
1.59244E+12,-0.44216174,0.22412404,0.5826415,-0.042802002,1.480801,3.62929,0
1.59244E+12,-0.5363049,0.5420069,0.30308658,-0.761286,2.40449,4.072213,0
1.59244E+12,-0.72339344,0.65770954,0.5153279,-2.6800861,2.608096,4.363231,0
1.59244E+12,-0.9212618,1.0146391,0.3692024,-3.988068,1.776616,4.381353,0
1.59244E+12,-1.0882281,1.1696279,0.28703675,-4.025911,1.323566,4.744859,0
1.59244E+12,-1.3876655,1.8810914,0.025208602,-5.79174,1.673214,4.034903,0
1.59244E+12,-1.7580099,2.0169163,0.15097235,-5.892477,1.1546049,3.273779,0
1.59244E+12,-1.9086869,2.5453637,-0.1113349,-6.260247,0.138707,2.719992,0
1.59244E+12,-2.0524168,2.6637013,-0.10726255,-6.6322813,1.1220919,1.624144,0
1.59244E+12,-2.2751985,2.400915,-0.2670424,-6.734617,3.301529,0.167988,0
1.59244E+12,-2.474504,2.228918,-0.43664378,-6.058773,6.077393,-3.313568,0
1.59244E+12,-2.6285346,1.8499498,-0.6603835,-3.98487,7.689185,-5.153484,0
1.59244E+12,-1.9625857,1.9359484,-0.81800735,-1.190884,4.655349,-6.079838,0
1.59244E+12,-1.4990563,1.7778454,-0.9020894,0.726317,2.1273298,-5.883161,0
1.59244E+12,-1.2947202,1.7229884,-1.1454723,1.434141,2.439668,-5.512726,0
1.59244E+12,-1.2087218,1.4388821,-1.2166187,2.578492,2.4796429,-5.081529,0
1.59244E+12,-1.0338503,1.3543209,-1.3083662,3.028344,3.4545,-4.182358,0
1.59244E+12,-0.6771603,1.220652,-1.1531379,3.9925408,3.595212,-3.265065,0
1.59244E+12,-0.6340413,1.1689093,-0.82615215,3.7969298,3.2924678,-2.461834,0
1.59244E+12,-0.45342058,0.86132705,-0.30704725,2.9681149,3.151756,-1.324412,0
1.59244E+12,-0.2498031,0.6689684,-0.1271452,3.036339,3.143761,-0.235493,0
1.59244E+12,-0.1779381,0.5108654,-0.2205697,3.043268,3.126705,0.52509797,0
1.59244E+12,-0.1568577,0.41696182,-0.00186055,2.866845,2.774392,1.52394,0
1.59244E+12,-0.12068565,0.40618205,0.11024885,2.803951,2.5553288,1.927954,0
1.59244E+12,-0.1879992,0.36689585,0.20558974,3.145604,1.897074,2.427375,0
1.59244E+12,-0.2833401,0.35611612,0.25254154,2.448973,1.935983,2.568087,0
1.59244E+12,-0.32621956,0.3589907,0.5282636,2.197397,2.6166239,2.868166,0
1.59244E+12,-0.5185782,0.40522385,0.57305944,0.21890101,3.1544209,3.039259,0
1.59244E+12,-0.3623916,0.43588623,0.7002605,-0.63389903,3.318052,4.334982,0
1.59244E+12,-0.4855203,0.78083825,0.48706102,-0.63389903,3.318052,4.334982,0
1.59244E+12,-0.8975463,1.2929962,0.46382466,-1.124259,2.91084,4.60468,0
1.59244E+12,-1.3114887,1.7725751,0.2240351,-1.6178169,2.319743,5.276793,0
1.59244E+12,-1.0786461,1.2719157,0.58599514,-1.225529,2.4769778,4.98311,0
1.59244E+12,-1.9872593,1.9278036,0.5170047,-3.62243,1.2414839,4.83387,0
1.59244E+12,-2.022473,2.3173118,0.46262687,-3.9075851,1.4626789,4.658513,0
1.59244E+12,-1.8533509,2.8979812,-0.11109535,-7.0330973,3.07074,2.960908,0
1.59244E+12,-2.4086277,2.700592,-0.0658204,-6.733018,1.6497619,3.079234,0
1.59244E+12,-2.5710425,2.623936,-0.5921117,-7.319851,0.453177,1.4125429,0
1.59244E+12,-3.0508611,2.168791,-0.8347759,-7.611402,2.970003,0.398777,0
1.59244E+12,-2.4598913,2.0353618,-0.91478556,-6.810303,6.654099,-2.8893,0
1.59244E+12,-1.4899534,2.0636287,-1.4343696,-4.7225423,8.259495,-6.330348,0
1.59244E+12,-1.4722267,1.7524531,-1.5924726,-0.919587,4.0610538,-6.566467,0
1.59244E+12,-1.4212025,1.8794146,-1.7855499,0.621316,2.0505779,-6.407633,0
1.59244E+12,-1.0613985,2.0094903,-1.4909034,1.751809,3.835062,-6.214154,0
1.59244E+12,-0.6522471,1.8918711,-0.85705405,3.27459,5.353046,-5.556965,0
1.59244E+12,-0.3964077,1.1605251,-0.18727225,4.523409,5.350381,-3.641896,0
1.59244E+12,-0.2799864,0.85030776,-0.0097657,4.300615,4.441616,-1.725228,0
1.59244E+12,-0.263697,0.59949887,0.0228131,3.369464,4.2321467,-0.14328401,0
1.59244E+12,-0.1712307,0.45552936,0.10258325,2.700016,3.7668378,0.692993,0
1.59244E+12,-0.22560854,0.4730165,0.061141096,2.0865328,3.4134588,1.611352,0
1.59244E+12,-0.31567937,0.3518042,0.14043215,2.01138,3.127771,2.504127,0
1.59244E+12,-0.38514885,0.37791514,0.2479901,2.131305,2.35652,2.750906,0
1.59244E+12,-0.36454755,0.24520445,0.5275449,2.6099389,1.676945,2.953979,0
1.59244E+12,-0.54037726,0.379592,0.45855457,1.800312,2.091619,3.222611,0
1.59244E+12,-0.4342566,0.408338,0.6101897,1.529548,1.7115899,3.268449,0
1.59244E+12,-0.75645137,0.6371082,0.42980856,0.150144,2.474846,3.691118,0
1.59244E+12,-0.78950924,0.6517208,0.5847974,-0.041736003,2.061238,3.94376,0
1.59244E+12,-1.1960256,0.8888753,0.1895399,-2.02876,1.297449,4.237976,0
1.59244E+12,-1.315561,1.3248563,0.27026826,-2.120969,1.181255,3.960283,0
1.59244E+12,-1.6768024,1.7399966,0.02017805,-3.760477,2.182229,3.877668,0
1.59244E+12,-1.8212512,1.9603825,0.10881154,-4.892569,2.515354,3.53335,0
1.59244E+12,-1.9321626,2.1910691,0.2518229,-4.941605,1.59433,2.692809,0
1.59244E+12,-2.0670295,2.400915,-0.37124664,-7.288937,1.6534929,1.765922,0
1.59244E+12,-2.2869363,2.258143,-0.3906502,-6.83642,0.996837,0.729237,0
1.59244E+12,-2.4028785,2.2281995,-0.6735588,-6.7372823,1.2793269,-0.407119,0
1.59244E+12,-2.2536387,2.0013454,-0.792136,-6.515554,2.826093,-2.194268,0
1.59244E+12,-1.9170711,1.9285223,-0.91718113,-5.068459,3.8537169,-4.224465,0
1.59244E+12,-1.4427621,1.7356846,-1.0331233,-3.080902,4.280117,-5.197723,0
1.59244E+12,-1.2621415,1.4403194,-1.4398792,-1.664721,2.726955,-5.770165,0
1.59244E+12,-1.0681059,1.2424511,-1.4971316,0.786546,2.542537,-5.267013,0
1.59244E+12,-0.75549316,1.3804319,-1.4307764,1.314749,4.382986,-5.099651,0
1.59244E+12,-0.5569062,1.2132261,-0.9138274,2.8529868,4.363265,-4.503224,0
1.59244E+12,-0.46899134,0.9981101,-0.58540434,3.827844,3.471556,-3.286918,0
1.59244E+12,-0.43018427,0.8184476,-0.27398935,4.241985,2.44713,-2.247035,0
1.59244E+12,-0.38203472,0.72813725,-0.15133974,3.865687,3.445972,-0.93159103,0
1.59244E+12,-0.20548634,0.6253703,-0.20308256,3.106695,3.835595,0.21276,0
1.59244E+12,-0.37700415,0.5511098,0.0189803,3.730305,1.9946129,1.136982,0
1.59244E+12,-0.3154398,0.346055,0.17971835,3.844367,2.238194,1.551123,0
1.59244E+12,-0.5171409,0.34485725,0.25805122,3.21596,2.22327,1.844273,0
1.59244E+12,-0.2910057,0.22172853,0.43412048,3.8299758,2.021796,1.735008,0
1.59244E+12,-0.4385685,0.38605985,0.39675063,2.5694308,2.126797,1.605489,0
1.59244E+12,-0.20404904,0.293354,0.63318646,2.995831,2.678452,1.991381,0
1.59244E+12,-0.5377422,0.57027376,0.4233407,1.053046,3.3953369,2.52065,0
1.59244E+12,-0.460128,0.583449,0.623365,1.618026,2.1971529,2.870831,0
1.59244E+12,-0.5696024,1.1411215,0.4084886,-0.743697,3.746584,3.071239,0
1.59244E+12,-0.781125,1.3972003,0.3150641,-2.7744272,3.4134588,4.725671,0
1.59244E+12,-1.6645855,1.4772102,0.30356568,-2.158812,-0.017995,4.611609,0
1.59244E+12,-1.6791979,1.6865768,0.2293052,-4.418199,2.112406,4.410135,0
1.59244E+12,-2.0830793,1.7383196,0.16199166,-4.3020053,2.291494,2.885755,0
1.59244E+12,-1.8413732,2.1757379,0.08725205,-5.9180613,2.523882,2.36075,0
1.59244E+12,-2.1851277,2.1728635,-0.03491845,-6.2581153,1.5959289,1.182287,0
1.59244E+12,-2.3710184,2.161844,-0.3729235,-6.4414673,1.9780899,-0.039882,0
1.59244E+12,-2.5736775,1.9306781,-0.57438505,-6.675454,3.1752079,-2.301401,0
1.59244E+12,-2.3219106,2.0264983,-0.89825666,-5.127089,4.00882,-4.359314,0
1.59244E+12,-1.9795936,1.8497102,-0.9430525,-3.923042,4.4911847,-6.090498,0
1.59244E+12,-1.2269275,1.9091189,-1.1761347,-1.246849,3.3244479,-5.803211,0
1.59244E+12,-1.2149501,1.5083516,-1.2079948,0.223165,1.448821,-5.630519,0
1.59244E+12,-1.0697827,1.3112019,-1.2618935,1.330739,1.95144,-5.2878,0
1.59244E+12,-0.77154297,1.1310604,-1.278662,1.921836,2.923099,-4.840613,0
1.59244E+12,-0.5169014,1.0067339,-1.07217,3.0645878,2.656599,-3.775146,0
1.59244E+12,-0.31711665,0.71328515,-0.69272274,3.415302,2.72962,-2.812548,0
1.59244E+12,-0.24956354,0.44978014,-0.3901711,3.0464659,2.806372,-1.976271,0
1.59244E+12,-0.19255064,0.3450968,-0.3010585,2.4436429,3.394804,-1.0222011,0
1.59244E+12,-0.024147,0.28113693,-0.23949416,1.88879,3.57709,0.088571005,0
1.59244E+12,-0.03852,0.2895212,-0.2727916,2.14996,3.5834858,1.392822,0
1.59244E+12,-0.20141399,0.31946495,-0.0897754,2.0780048,3.444906,2.427908,0
1.59244E+12,-0.47450098,0.25861925,-0.00473515,2.452704,2.660863,2.844714,0
1.59244E+12,-0.4974978,0.24232987,0.035748802,2.53372,2.1518478,2.632047,0
1.59244E+12,-0.30370185,0.33335885,0.08294015,2.550776,2.389566,3.145326,0
1.59244E+12,-0.5775075,0.40043288,0.47005296,2.170214,1.444024,3.032863,0
1.59244E+12,-0.53750265,0.3072479,0.4856237,1.223606,1.5250399,3.163981,0
1.59244E+12,-0.69752204,0.4720583,0.62312543,0.193317,2.18596,3.195428,0
1.59244E+12,-0.6728484,0.6816646,0.381659,-0.388186,0.616275,3.723098,0
1.59244E+12,-0.9409048,0.6804668,0.5289823,-1.511217,1.972227,3.711905,0
1.59244E+12,-0.9047328,1.2378997,0.17013635,-2.491404,1.1753919,4.430389,0
1.59244E+12,-1.5052847,1.2352645,0.3950738,-2.965241,1.8544339,3.903785,0
1.59244E+12,-1.2983134,1.8556992,0.0779096,-4.510408,1.72225,3.966146,0
1.59244E+12,-2.0449908,1.7181975,0.2628422,-4.192207,1.6209799,3.532817,0
1.59244E+12,-2.0023508,2.072492,-0.097680554,-5.689404,1.797936,1.4813,0
1.59244E+12,-2.146081,2.001585,-0.3686116,-5.98362,1.627376,0.736699,0
1.59244E+12,-2.6057773,1.7778454,-0.46754575,-5.519377,1.8864139,-1.1511871,0
1.59244E+12,-2.612964,1.7490994,-0.7796794,-5.42397,4.079709,-3.48093,0
1.59244E+12,-2.2320793,1.7546089,-0.85753316,-3.8708081,5.781578,-5.535112,0
1.59244E+12,-1.6085306,1.8403679,-1.0149175,-1.594898,4.04613,-6.346338,0
1.59244E+12,-1.2183038,1.5768629,-1.0312068,-0.597655,2.379972,-5.967908,0
1.59244E+12,-0.93252057,1.359112,-1.5057554,0.48540097,1.565015,-5.643311,0
1.59244E+12,-0.9188663,1.3162324,-1.5531863,1.4863751,2.4551249,-4.856603,0
1.59244E+12,-0.9198244,1.4364866,-1.3584322,2.646183,3.7082078,-4.478173,0
1.59244E+12,-0.59571326,1.2232871,-0.89921486,3.696193,4.055191,-3.616845,0
1.59244E+12,-0.39377266,0.97199917,-0.49102163,3.6807358,3.505668,-2.651582,0
1.59244E+12,-0.2641761,0.66968703,-0.29506975,3.360936,3.190132,-1.77,0
1.59244E+12,-0.08044125,0.5724298,-0.1899073,3.0454,3.214117,-0.536638,0
1.59244E+12,0.057539552,0.38366434,-0.0701323,2.6051419,3.330844,0.88967,0
1.59244E+12,-0.11493645,0.30461285,0.0117938,2.2869408,3.802016,1.749399,0
1.59244E+12,-0.0409155,0.2895212,0.1258196,1.792317,3.2743459,2.700804,0
1.59244E+12,-0.23303461,0.3527624,0.14713955,2.6904218,0.874247,2.7173269,0
1.59244E+12,-0.3599961,0.27658552,0.39483425,3.0475318,0.552848,2.924664,0
1.59244E+12,-0.49342546,0.38893443,0.4377137,2.44311,0.653585,2.956111,0
1.59244E+12,-0.42323732,0.34677365,0.58288103,2.6355228,0.951532,3.04299,0
1.59244E+12,-0.76555425,0.4701419,0.73044384,1.529548,1.706793,3.307891,0
1.59244E+12,-0.6460188,0.55518216,0.6236045,0.736977,3.437444,3.59731,0
1.59244E+12,-0.88389194,0.9006132,0.4468166,-1.240986,3.1458929,3.722032,0
1.59244E+12,-0.88724566,1.1770539,0.33782133,-1.1024059,1.8496369,4.011451,0
1.59244E+12,-1.4382107,1.6178259,0.44466066,-2.523384,1.4408259,4.243839,0
1.59244E+12,-1.4846833,1.9505609,0.40705127,-2.514856,1.456283,4.677701,0
1.59244E+12,-2.0871515,2.154418,0.29230684,-4.958661,1.784611,4.31686,0
1.59244E+12,-2.5509205,2.1568134,-0.2833318,-6.269308,2.024994,2.419913,0
1.59244E+12,-2.244536,2.2921593,-0.12019825,-5.286989,0.988309,3.371318,0
1.59244E+12,-2.457496,1.9932009,-0.5851648,-7.116778,3.697015,0.600784,0
1.59244E+12,-2.497501,1.8985786,-0.92149293,-6.577915,4.639892,-1.815305,0
1.59244E+12,-1.7230356,2.0518906,-1.3220206,-5.872756,6.346025,-4.651398,0
1.59244E+12,-1.1888391,1.8128197,-1.3725656,-2.6752892,6.714861,-5.905014,0
1.59244E+12,-1.0055834,1.6063277,-1.3809499,0.19811401,4.604181,-5.944456,0
1.59244E+12,-0.7866346,1.4027101,-1.5160561,1.6404121,3.568029,-5.359755,0
1.59244E+12,-0.40431285,1.3452181,-1.4305367,2.681361,3.9661798,-4.782516,0
1.59244E+12,-0.3413112,1.266406,-1.2087134,3.545887,4.534891,-3.788471,0
1.59244E+12,0.1377888,1.198853,-0.8374109,3.8848748,5.391422,-2.826939,0
1.59244E+12,0.0596955,0.73915654,-0.5554606,4.291021,4.377656,-1.044054,0
1.59244E+12,0.041489698,0.55182844,-0.3734026,4.425337,2.690711,-0.24668601,0
1.59244E+12,-0.19877896,0.44882196,-0.37555856,3.5341609,2.367713,0.663678,0
1.59244E+12,-0.1578159,0.38031065,-0.2033221,2.4644299,3.647979,1.322466,0
1.59244E+12,-0.19973716,0.20136681,-0.14702785,1.9660751,3.534983,1.83308,0
1.59244E+12,-0.20356996,0.22819641,-0.029648349,1.2070831,2.619289,2.612859,0
1.59244E+12,-0.4395267,0.293354,-0.07037185,0.92939,2.347992,3.093625,0
1.59244E+12,-0.46659583,0.30700836,0.045809902,0.89794296,1.505319,3.395303,0
1.59244E+12,-0.7499835,0.341264,0.20463154,1.048782,1.161534,3.693783,0
1.59244E+12,-0.73968285,0.45600843,0.30308658,0.42837,1.4546839,3.267916,0
1.59244E+12,-0.4941441,0.6119555,0.491852,-0.422298,2.2461889,3.688986,0
1.59244E+12,-1.0760111,0.8052724,0.3399773,-1.51708,-0.113935,3.846221,0
1.59244E+12,-1.1608117,0.8323415,0.5867138,-1.224996,-0.192819,4.930343,0
1.59244E+12,-1.4279101,1.3394688,0.2484692,-3.464662,0.819348,4.067416,0
1.59244E+12,-1.4029968,1.5804561,0.022094449,-3.927839,1.5175779,3.836094,0
1.59244E+12,-1.7982544,1.9033695,-0.04018855,-4.91229,1.2995809,3.569594,0
1.59244E+12,-1.8373009,2.1984951,-0.1343317,-5.181455,0.993639,2.715195,0
1.59244E+12,-1.8440082,2.3070111,-0.562168,-6.056641,1.39712,1.950873,0
1.59244E+12,-2.1836903,2.0645866,-0.7042211,-6.1579113,1.3001139,0.989874,0
1.59244E+12,-2.443602,1.829109,-0.61750406,-5.041809,0.753256,0.054459,0
1.59244E+12,-2.2761567,1.9052861,-1.0319256,-6.218673,2.876195,-2.198532,0
1.59244E+12,-1.7283056,1.9040883,-1.1957777,-5.169196,4.363265,-4.20048,0
1.59244E+12,-0.82065076,1.6999916,-1.2331475,-3.237071,5.290685,-5.919405,0
1.59244E+12,-0.35616332,1.2901216,-1.175416,-0.775677,3.355895,-5.833059,0
1.59245E+12,-2.2749588,1.8097055,-0.9914416,-2.8330572,4.918651,-6.891064,0
1.59245E+12,-1.3306527,2.0849485,-1.7227876,-0.060391,3.731127,-7.667645,0
1.59245E+12,-0.82951415,1.8226411,-1.534262,0.666088,3.338306,-8.71499,0
1.59245E+12,-0.66063136,1.6432183,-1.1459514,1.662798,4.062653,-7.838205,0
1.59245E+12,-0.53750265,1.361747,-0.5736664,3.023547,3.537648,-6.06598,0
1.59245E+12,-0.31759575,1.0941696,-0.20955041,3.532562,3.248229,-4.764394,0
1.59245E+12,-0.20189309,0.76311153,0.16821995,3.207432,3.706076,-3.304507,0
1.59245E+12,-0.096012,0.73149097,0.1315688,3.245808,4.2662587,-0.829255,0
1.59245E+12,-0.20788185,0.55973357,0.23194024,2.237372,4.975149,0.233547,0
1.59245E+12,-0.3350829,0.6133928,0.45376354,1.9895271,4.7017198,1.546326,0
1.59245E+12,-0.2368674,0.576023,0.3730352,1.6654631,4.125014,2.23283,0
1.59245E+12,-0.30418095,1.0141599,0.1809161,0.93472,4.901062,3.018472,0
1.59245E+12,-0.68003494,1.0781198,0.5706639,-0.36899802,4.251335,3.456598,0
1.59245E+12,-1.2202202,1.611358,0.8339294,0.747104,2.289362,4.670772,0
1.59245E+12,-1.6686577,2.0895,0.7570339,-0.21762599,0.932877,5.448952,0
1.59245E+12,-2.1479974,2.1223183,1.0171851,-1.2351229,1.6337719,6.331067,0
1.59245E+12,-2.6328464,2.4821224,0.79104996,-2.2302341,1.314505,6.861402,0
1.59245E+12,-2.7308223,2.6572335,0.47340664,-4.131978,1.614051,6.161573,0
1.59245E+12,-3.1694386,2.9626596,0.39004326,-5.82905,2.2472548,5.26027,0
1.59245E+12,-3.3670673,2.6507657,-0.5353384,-6.722358,2.460988,3.91711,0
1.59245E+12,-3.3170013,2.3187492,-1.1059465,-8.587325,1.893876,2.236028,0
1.59245E+12,-2.8007712,1.933553,-1.66841,-7.959451,2.394363,-0.171,0
1.59245E+12,-1.974563,1.8025191,-1.9841368,-5.425569,4.1122217,-4.508554,0
1.59245E+12,-2.0833187,1.8142569,-1.8959824,-3.046257,4.274787,-7.154899,0
1.59245E+12,-1.394852,2.042069,-1.8363345,-0.091304995,2.031923,-7.727341,0
1.59245E+12,-0.6570381,1.9943985,-1.4880288,1.0711681,1.202575,-8.473008,0
1.59245E+12,-0.43401703,1.7086155,-0.8522631,1.5535331,3.626659,-8.146812,0
1.59245E+12,-0.40742698,1.4046265,-0.31950384,3.028877,4.443748,-6.66827,0
1.59245E+12,-0.24908444,0.98062295,-0.0730069,3.808656,4.0706477,-4.783582,0
1.59245E+12,-0.4711473,0.76694435,-0.0361162,3.198371,5.054033,-2.695821,0
1.59245E+12,-0.4347357,0.671843,0.1583984,2.803418,6.7750897,0.30390298,0
1.59245E+12,-0.63284355,0.7096919,0.27841294,2.228844,6.931792,1.684906,0
1.59245E+12,-0.87095624,0.51541686,0.5895884,1.9314301,5.460712,2.646438,0
1.59245E+12,-0.5715188,0.803356,0.40585357,1.959679,3.581887,3.193296,0
1.59245E+12,-0.77801085,0.5942288,0.719185,1.034391,4.015749,2.818064,0
1.59245E+12,-0.579903,1.3488114,0.23840809,0.520579,3.5248559,3.800916,0
1.59245E+12,-1.1366172,1.4266651,0.6001286,-1.461115,3.7071419,3.219946,0
1.59245E+12,-1.2916061,2.146992,0.15288875,-1.47977,1.126889,4.580162,0
1.59245E+12,-2.0330133,2.4124131,0.31099173,-4.166623,1.546893,4.487953,0
1.59245E+12,-2.6450636,2.7374825,0.06521345,-4.531195,0.584828,5.232554,0
1.59245E+12,-2.7830443,2.5911176,0.0712022,-5.733643,0.149367,4.695823,0
1.59245E+12,-3.421924,2.3954053,-0.31854564,-6.364182,1.3880589,4.150564,0
1.59245E+12,-3.4097073,2.2085562,-0.995993,-7.938131,2.977465,2.885755,0
1.59245E+12,-3.304545,1.9694853,-1.438921,-7.918943,2.660863,0.045931,0
1.59245E+12,-2.8141859,1.906244,-1.6700866,-6.6615963,2.1811628,-2.728334,0
1.59245E+12,-2.2974765,1.97236,-1.9932398,-4.9304123,2.994521,-5.427446,0
1.59245E+12,-1.7148908,2.1944227,-2.0325258,-2.7829552,3.059547,-7.355307,0
1.59245E+12,-1.1464388,2.2629342,-1.4633551,0.421441,2.146518,-8.378667,0
1.59245E+12,-0.49725825,1.8949854,-0.67260057,1.697976,3.0494199,-8.349352,0
1.59245E+12,-0.2531568,1.4779288,-0.12738475,3.1269488,5.3519797,-7.194874,0
1.59245E+12,0.0903579,1.038594,-0.020785,3.82358,5.377564,-5.180667,0
1.59245E+12,0.12916501,0.75640416,0.18738395,3.5107088,5.130252,-3.112627,0
1.59245E+12,0.08724375,0.82707137,0.03359285,3.334286,3.852118,-1.172507,0
1.59245E+12,-0.065589145,0.8007209,0.0927617,2.4143279,3.307392,0.133343,0
1.59245E+12,-0.3638289,0.9221727,-0.025576001,1.3413991,4.2124257,1.72115,0
1.59245E+12,-0.61463773,0.88839614,0.6997814,1.3248761,3.53445,3.475786,0
1.59245E+12,-0.71285325,1.0872227,0.4496912,2.924409,1.788342,3.772134,0
1.59245E+12,-0.8553855,1.1435169,0.9714311,1.538609,3.0051808,4.296073,0
1.59245E+12,-1.0798438,1.555543,0.79512227,1.539142,1.709458,4.384018,0
1.59245E+12,-1.1742265,1.7174788,0.77523965,-0.209631,2.74561,4.834936,0
1.59245E+12,-1.8686819,2.2722764,0.6993023,-1.484034,2.519618,5.134482,0
1.59245E+12,-2.053375,2.5367398,0.38453358,-3.611237,2.8415499,5.679741,0
1.59245E+12,-2.7389672,2.7353268,-0.01575445,-5.078053,2.8255599,5.549156,0
1.59245E+12,-3.0343323,2.305574,0.21612994,-6.821496,2.4295409,4.786966,0
1.59245E+12,-3.0029511,2.2521544,-0.6984719,-6.502762,1.7163869,3.924572,0
1.59245E+12,-3.0853565,2.0784805,-1.3189064,-7.484015,2.2264678,1.509016,0
1.59245E+12,-2.623025,2.0593166,-1.4643133,-7.300663,3.7876248,-1.996525,0
1.59245E+12,-2.1194909,2.0648263,-1.7829148,-5.105769,4.771543,-4.937086,0
1.59245E+12,-1.8641306,1.9007345,-1.8315436,-2.425312,5.72508,-6.931572,0
1.59245E+12,-1.4978586,2.0334451,-1.6772732,0.97256297,2.839418,-7.809956,0
1.59245E+12,-0.68937737,1.9093583,-1.1933823,2.303997,2.619289,-7.94214,0
1.59245E+12,-0.33580154,1.6044111,-0.59810054,3.3188288,3.497673,-7.838205,0
1.59245E+12,-0.1894365,1.263292,-0.30752635,3.889139,3.405464,-6.538218,0
1.59245E+12,-0.110385,0.87402326,-0.1199587,3.7601528,3.0456889,-5.009041,0
1.59245E+12,-0.07133835,0.62417257,0.03982115,3.096035,4.354737,-2.697953,0
1.59245E+12,0.07095435,0.57913715,0.056829203,2.180341,5.248578,-0.076125994,0
1.59245E+12,-0.1645233,0.5650037,0.11887266,1.384572,5.643531,1.142312,0
1.59245E+12,-0.3427485,0.5475165,0.39914614,0.883019,5.253908,2.469482,0
1.59245E+12,-0.24333525,0.8934267,0.09491765,0.979492,3.63039,3.072838,0
1.59245E+12,-0.61152357,0.8083865,0.77380234,0.406517,2.5675879,3.081366,0
1.59245E+12,-0.9456959,1.1279461,0.64803857,1.4250801,1.04534,4.144168,0
1.59245E+12,-1.0599612,1.3179094,0.7182268,-0.320495,3.115512,4.784301,0
1.59245E+12,-1.5345098,1.6465719,0.7967991,-0.636564,1.4674759,4.923414,0
1.59245E+12,-1.7074648,1.9903262,0.46669927,-1.7723869,1.0181569,5.135548,0
1.59245E+12,-2.429229,2.3345597,0.4904147,-3.263721,1.110899,4.89783,0
1.59245E+12,-2.6987228,2.82947,0.2752988,-3.662938,0.851861,5.231488,0
1.59245E+12,-3.1945913,2.8040776,-0.49533352,-6.610961,2.1726348,4.144168,0
1.59245E+12,-3.3256252,2.3446207,-1.1282246,-7.917877,2.1518478,3.223144,0
1.59245E+12,-3.3191574,1.9194195,-1.5625288,-8.363998,2.465785,1.430132,0
1.59245E+12,-2.9097664,1.8533036,-1.8087862,-7.226043,2.717361,-1.560531,0
1.59245E+12,-1.9525245,2.1565738,-2.0018635,-5.581738,3.8867629,-4.393426,0
1.59245E+12,-1.3852701,2.0607538,-1.9513184,-3.772736,6.3838677,-7.302007,0
1.59245E+12,-0.7921443,1.9910448,-1.9949166,0.25621098,3.771635,-8.465546,0
1.59245E+12,-0.60361844,1.8770192,-1.3886155,1.7736621,3.838793,-7.948536,0
1.59245E+12,-0.33101055,1.6424996,-0.6505619,3.4851248,4.463469,-6.75888,0
1.59245E+12,-0.13218406,1.100877,-0.1151677,4.545262,4.025876,-5.46902,0
1.59245E+12,0.03550095,0.8040746,0.02832275,4.126857,4.123415,-3.011357,0
1.59245E+12,-0.1305072,0.55087024,0.054673247,3.1466699,4.764614,-1.215147,0
1.59245E+12,-0.06894285,0.53985095,-0.0102448,2.370622,4.767279,0.758552,0
1.59245E+12,-0.25291723,0.59063554,0.0831797,1.627087,4.56314,1.863461,0
1.59245E+12,-0.32238674,0.49433646,0.2642795,1.343531,3.5531049,2.554229,0
1.59245E+12,-0.24189794,0.88336563,0.23864765,1.3376681,3.489145,3.435278,0
1.59245E+12,-0.57726794,0.93438977,0.3471638,0.15227601,4.002424,3.635153,0
1.59245E+12,-0.898744,1.472419,0.37159792,-0.044401,2.6384768,4.629731,0
1.59245E+12,-1.5057638,1.3490508,0.740984,-0.520903,1.2217629,4.941003,0
1.59245E+12,-1.5074406,1.8528246,0.5991704,-0.562477,0.536325,5.469739,0
1.59245E+12,-2.4503093,2.049974,0.7802702,-1.544263,1.178057,5.305575,0
1.59245E+12,-2.346824,2.2900033,0.18403025,-3.4870481,1.111965,5.261336,0
1.59245E+12,-2.9495316,2.2935965,0.24367818,-5.379198,1.278261,4.176681,0
1.59245E+12,-3.1984239,2.1232765,-0.09288955,-6.245323,2.4684498,3.707108,0
1.59245E+12,-3.4992988,2.0152392,-0.85561675,-6.644007,0.32046,2.351156,0
1.59245E+12,-3.610929,1.7110109,-0.9866506,-7.687621,0.791632,0.573601,0
1.59245E+12,-3.020678,2.0334451,-1.7510545,-6.808704,2.422612,-1.518424,0
1.59245E+12,-2.3923383,2.0494952,-1.9745548,-5.961767,4.211893,-4.988254,0
1.59245E+12,-2.1463206,2.1077056,-1.9304775,-3.11608,3.767904,-7.450714,0
1.59245E+12,-1.7735808,2.3017411,-1.7472217,-0.223489,2.464719,-8.396789,0
1.59245E+12,-0.6723693,1.8231204,-0.6361889,1.547137,2.572918,-8.642502,0
1.59245E+12,-0.25100085,1.4328934,-0.1621195,2.6355228,2.822895,-8.766691,0
1.59245E+12,0.01777425,0.997152,-0.071330056,3.328956,4.492251,-6.299967,0
1.59245E+12,0.056341797,0.6292031,0.06377615,2.96012,4.43522,-4.207409,0
1.59245E+12,0.0855669,0.583449,0.12318455,2.6062078,4.254533,-1.974139,0
1.59245E+12,0.11024056,0.5350599,0.00820055,1.889323,5.180354,-0.32450402,0
1.59245E+12,-0.26249927,0.62225616,0.4137587,1.388303,5.0145907,0.99946797,0
1.59245E+12,-0.19518569,0.432293,0.50598544,1.962877,2.59637,1.99298,0
1.59245E+12,-0.27423722,0.9307965,0.48682147,2.078538,3.132035,2.569153,0
1.59245E+12,-0.24381435,0.74251026,0.97861755,0.437964,3.4550328,2.856973,0
1.59245E+12,-0.52312964,1.3653402,0.6825338,1.983131,1.6204469,3.571726,0
1.59245E+12,-1.1385336,1.9773905,0.5891093,-0.188844,0.807622,4.554045,0
1.59245E+12,-1.6420677,2.0650659,0.6327074,-1.4179419,1.797936,5.693599,0
1.59245E+12,-2.1458414,2.474936,0.7417027,-1.406749,1.7739509,6.639674,0
1.59245E+12,-2.913599,2.2274806,0.6964277,-3.28131,2.746676,6.804904,0
1.59245E+12,-2.9976811,2.6332784,0.649955,-3.920377,2.3437278,6.607694,0
1.59245E+12,-3.3625157,2.595669,0.03742565,-5.080718,2.4428658,5.054532,0
1.59245E+12,-3.751545,2.1120176,-0.9844947,-7.5000052,3.2338378,3.693783,0
1.59245E+12,-3.6272187,1.8190479,-0.96988213,-8.324023,2.333601,1.544727,0
1.59245E+12,-2.4033575,1.8097055,-1.7223088,-6.872664,2.104944,-1.728426,0
1.59245E+12,-2.1690776,1.8671974,-1.8255546,-5.737907,4.075978,-4.84541,0
1.59245E+12,-1.5752332,1.8377329,-1.7912991,-1.712691,2.1848938,-7.736402,0
1.59245E+12,-0.798133,1.9084002,-1.4863518,-0.133945,2.044715,-8.33656,0
1.59245E+12,-0.5257647,1.6695688,-0.8798113,1.135661,4.002424,-8.14468,0
1.59245E+12,-0.40575013,1.3780364,-0.37891227,2.7847629,3.177873,-7.028578,0
1.59245E+12,-0.24405389,1.0548835,-0.3207016,3.49312,3.111248,-5.306455,0
1.59245E+12,-0.11709239,0.8129379,-0.075641945,3.114157,3.273813,-3.506514,0
1.59245E+12,0.014899651,0.7621533,0.09395945,3.257534,2.8474128,-2.171882,0
1.59245E+12,0.04508295,0.7954508,0.21948366,2.987836,4.605247,-0.656563,0
1.59245E+12,-0.10200075,0.8335393,0.24104314,2.532121,4.876011,0.73723197,0
1.59245E+12,-0.1127805,0.92792195,0.43435997,2.735194,4.095699,2.09425,0
1.59245E+12,-0.69608474,1.4661908,0.6432476,2.8396618,3.011044,3.205022,0
1.59245E+12,-0.64937246,1.3306055,0.8066207,1.79285,1.993547,4.131909,0
1.59245E+12,-0.9313229,1.8489918,1.0207784,3.0976338,1.288921,4.552979,0
1.59245E+12,-1.0841558,1.9764322,0.6039614,0.512051,2.4636528,5.084913,0
1.59245E+12,-1.5757124,2.4627187,0.9829295,0.400654,2.097482,5.585933,0
1.59245E+12,-2.118772,2.5762656,0.4549613,-1.3310629,3.30526,6.20368,0
1.59245E+12,-2.6496148,2.5714746,0.6755868,-3.310625,3.805747,6.535739,0
1.59245E+12,-2.8400571,2.473259,0.46622014,-3.6863902,3.773234,5.988348,0
1.59245E+12,-3.5414596,1.7570045,-0.15038155,-5.449021,4.008287,4.620137,0
1.59245E+12,-3.3287392,1.8362955,-0.45508915,-6.6003013,2.887388,1.966863,0
1.59245E+12,-3.073858,1.7776058,-0.943292,-6.323141,2.641142,-1.956017,0
1.59245E+12,-2.7152517,1.8537827,-0.978985,-5.513514,2.64967,-4.402487,0
1.59245E+12,-2.5008545,1.9824212,-1.134932,-3.7903252,1.3342259,-7.042969,0
1.59245E+12,-2.017682,2.200172,-1.1780511,-2.50313,0.317795,-8.010897,0
1.59245E+12,-1.477976,1.936188,-0.7183546,-1.7009649,1.016025,-9.14139,0
1.59245E+12,-0.44120353,1.5732696,-0.32716945,-0.354074,1.4994559,-8.844509,0
1.59245E+12,0.124613546,1.2316713,-0.20140569,0.28339398,2.720559,-8.6115885,0
1.59245E+12,0.07047525,0.7638302,-0.24883659,0.855836,3.286072,-6.9401,0
1.59245E+12,0.008192251,0.6395038,-0.0648622,1.3621861,2.739747,-3.973422,0
1.59245E+12,-0.10056345,0.69939125,0.15217009,2.298667,2.791981,-2.21772,0
1.59245E+12,-0.13026765,0.64956486,0.20798525,2.157955,5.182486,-0.14061901,0
1.59245E+12,-0.05217435,0.87665826,0.101145945,2.347703,5.589698,0.938173,0
1.59245E+12,-0.196623,0.8792933,0.83896,3.10936,3.3036609,2.1209,0
1.59245E+12,-0.2023722,1.028533,0.4357973,2.21925,4.340879,3.063777,0
1.59245E+12,-0.4447968,1.2412534,0.89333785,1.5748531,3.4283829,3.75188,0
1.59245E+12,-0.73824555,1.5720719,0.58982795,0.719921,3.559501,4.484222,0
1.59245E+12,-0.97563964,1.7435898,0.9628073,0.337227,3.555237,5.158467,0
1.59245E+12,-1.561579,2.2739534,0.65642285,-2.138025,4.346209,5.762889,0
1.59245E+12,-1.9271322,2.2861705,0.8784857,-2.6006691,3.9283369,5.883347,0
1.59245E+12,-2.218904,2.8833687,0.4669388,-5.459148,4.025343,5.471871,0
1.59245E+12,-2.7344155,2.8958251,0.17971835,-7.2239113,4.274787,4.783768,0
1.59245E+12,-3.3754516,2.6289666,-0.1396018,-7.510132,2.3671799,3.119742,0
1.59245E+12,-3.3074193,2.4425967,-0.43041548,-7.359293,1.8528349,0.34654298,0
1.59245E+12,-2.761964,2.3527653,-1.0137198,-7.20952,4.6526837,-2.337112,0
1.59245E+12,-1.8708379,2.2643714,-1.5862443,-4.415534,5.525205,-7.260433,0
1.59245E+12,-1.8059199,2.094291,-1.9237702,-1.540532,2.219539,-7.896302,0
1.59245E+12,-1.5603812,2.2499986,-1.8466351,0.02329,2.082025,-7.892038,0
1.59245E+12,-1.1464388,2.235386,-1.2365012,2.103056,2.347992,-7.739067,0
1.59245E+12,-0.62134516,1.8655207,-0.49581265,3.1184208,2.7839859,-6.95076,0
1.59245E+12,-0.19207154,1.4010332,-0.09001495,3.712183,3.222112,-5.745647,0
1.59245E+12,-0.035405852,1.059914,-0.13696675,3.390784,2.291494,-4.0624332,0
1.59245E+12,0.13754925,0.79521126,0.109290645,3.441419,3.234371,-2.415996,0
1.59245E+12,0.026637599,0.6953189,0.10689515,3.068852,3.684223,-0.82339203,0
1.59245E+12,0.11790615,0.6943607,0.1928936,2.915881,4.0903687,0.16532299,0
1.59245E+12,-0.24860534,0.69747484,0.6243231,2.908952,3.754046,1.559118,0
1.59245E+12,-0.08092035,0.8855216,0.26595634,1.212946,5.918026,2.556894,0
1.59245E+12,-0.2967549,0.9796647,0.6748682,1.017335,5.055099,2.945451,0
1.59245E+12,-0.5626554,1.3694127,0.67894053,1.347262,3.188,4.212925,0
1.59245E+12,-0.6556008,1.6228565,0.61138743,0.194383,3.064344,4.541253,0
1.59245E+12,-1.1236815,2.068659,0.93477994,0.192251,2.0921519,5.802331,0
1.59245E+12,-1.5107943,2.393489,0.85117704,-2.228102,2.738148,6.003272,0
1.59245E+12,-2.1676404,2.9614618,0.70313513,-2.9529822,2.577182,6.423809,0
1.59245E+12,-2.4804928,2.989489,0.7673345,-4.562642,2.6518018,6.071496,0
1.59245E+12,-2.895633,2.9899683,0.2815271,-6.513955,3.103253,4.945267,0
1.59245E+12,-3.458815,2.4672704,-0.00138145,-7.038427,3.408129,3.886729,0
1.59245E+12,-3.3031075,2.3206658,-0.8290267,-7.474954,4.613242,-1.399032,0
1.59245E+12,-2.6093707,2.2231688,-1.1296619,-5.8024,4.696923,-5.0746,0
1.59245E+12,-2.4481535,2.084709,-1.1442745,-3.4454741,2.578781,-7.134645,0
1.59245E+12,-1.7625614,2.3819904,-1.6808665,-2.1811981,2.860205,-8.055136,0
1.59245E+12,-1.5788265,2.0466204,-1.4992876,-0.222956,1.8251189,-8.105238,0
1.59245E+12,-1.135659,2.0348825,-0.95047855,1.409623,1.9413129,-7.777976,0
1.59245E+12,-0.4730637,1.924929,-0.4361647,1.964476,3.872372,-7.45178,0
1.59245E+12,-0.15038985,1.4465477,-0.1175632,2.573695,6.077393,-5.076199,0
1.59245E+12,-0.024147,0.90612286,-0.0706114,3.169589,4.79233,-1.79132,0
1.59245E+12,0.0664029,0.6972353,0.1751669,3.432358,4.15806,-0.403921,0
1.59245E+12,0.16389975,0.73220956,-0.04258405,2.597147,5.116927,0.964823,0
1.59245E+12,-0.15709725,0.8843239,0.32943708,2.924409,3.3036609,2.197652,0
1.59245E+12,-0.26010376,0.9058833,0.46526194,3.2676609,3.8158739,3.271647,0
1.59245E+12,-0.7231539,1.0948883,0.8339294,2.307195,2.99079,3.977339,0
1.59245E+12,-0.57822615,1.0218256,0.92615616,2.342906,2.807971,4.105259,0
1.59245E+12,-0.78304136,1.4894272,0.7452959,-0.203235,3.122441,4.395211,0
1.59245E+12,-0.99648046,1.4867921,1.0317976,-0.062523,1.272931,4.472496,0
1.59245E+12,-1.1907555,2.154418,0.6988232,-2.6678271,4.788599,5.24961,0
1.59245E+12,-1.7635195,2.3079696,0.5325755,-4.298274,3.640517,5.214432,0
1.59245E+12,-2.4110231,2.6471725,0.28631812,-5.37067,3.036095,5.126487,0
1.59245E+12,-2.8690429,2.66969,0.0256877,-6.565123,1.9082669,3.609569,0
1.59245E+12,-3.0580478,2.4641562,-0.17864844,-7.113047,1.988217,1.973792,0
1.59245E+12,-3.0776908,2.3580356,-0.7018257,-6.96434,1.7744839,-0.622451,0
1.59245E+12,-2.8292775,2.19059,-1.0321652,-6.196287,3.295666,-2.796025,0
1.59245E+12,-2.319036,2.1515434,-1.4377233,-4.601551,3.431581,-5.36775,0
1.59245E+12,-2.184409,2.005897,-1.681106,-2.085258,2.135325,-6.816444,0
1.59245E+12,-1.674407,2.1350143,-2.064386,-0.672275,2.819164,-7.591426,0
1.59245E+12,-1.1184114,2.0722523,-1.6197813,1.594041,2.8474128,-8.020491,0
1.59245E+12,-0.6618291,1.7673051,-0.84387887,3.34921,3.964048,-6.89746,0
1.59245E+12,-0.20740275,1.6872956,-0.45077723,3.858758,4.204964,-5.809074,0
1.59245E+12,-0.4055106,1.2858096,-0.30129805,4.000003,2.6789849,-3.862558,0
1.59245E+12,0.079338595,0.8795328,0.059464253,3.5842628,4.695324,-1.938428,0
1.59245E+12,0.28846574,0.7489781,0.3212924,3.403576,5.045505,-0.359682,0
1.59245E+12,0.18809429,0.693642,0.28583902,2.738925,4.34994,1.261171,0
1.59245E+12,-0.0691824,0.67112434,0.84375095,3.380657,1.7169199,2.19019,0
1.59245E+12,0.039094202,0.86875314,0.40633264,1.505563,4.246005,3.089361,0
1.59245E+12,-0.21123555,1.2374206,0.57928777,1.352592,1.5911319,3.622894,0
1.59245E+12,-0.51211035,1.558657,0.28488082,0.80839896,1.7131889,4.398409,0
1.59245E+12,-0.99528277,1.709334,0.81740046,1.1452551,1.07732,5.181386,0
1.59245E+12,-1.5836174,1.6115977,1.4682578,1.126067,2.35652,5.876951,0
1.59245E+12,-0.8537086,2.2998247,0.1234241,-3.0089471,4.287046,4.965521,0
1.59245E+12,-1.9779167,2.4960163,0.89764965,-2.816534,2.260047,5.534232,0
1.59245E+12,-2.055531,2.9434955,0.3878873,-6.153114,4.591922,4.6984878,0
1.59245E+12,-2.7861586,2.8785777,0.26787275,-6.467051,2.543603,3.76787,0
1.59245E+12,-2.9921715,2.6555564,-0.15110019,-7.2335052,1.5383649,2.145951,0
1.59245E+12,-3.1390157,2.4303794,-0.6541552,-7.53465,3.714071,0.32682198,0
1.59245E+12,-2.5073223,2.4469085,-0.8429206,-6.589108,5.902569,-3.421767,0
1.59245E+12,-1.8631723,2.0700965,-1.513421,-4.532261,4.90959,-6.231743,0
1.59245E+12,-2.218904,1.8664789,-1.4688647,-1.34652,1.864561,-6.665072,0
1.59245E+12,-1.7596867,2.0475786,-1.8387299,-0.384988,2.1971529,-7.596756,0
1.59245E+12,-1.6219456,2.055963,-1.5234821,1.589777,2.264844,-7.551984,0
1.59245E+12,-0.6201474,2.257664,-0.81872606,2.3055959,4.942103,-7.772113,0
1.59245E+12,-0.02917755,1.5507519,-0.26464692,3.864621,4.21136,-4.846476,0
1.59245E+12,0.09826305,1.1650765,-0.1530166,4.0628967,3.228508,-2.566302,0
1.59245E+12,0.0841296,0.9192982,0.12941286,4.0309167,4.445347,-0.670954,0
1.59245E+12,0.16437885,0.87019044,0.1248614,3.832108,3.425185,0.560809,0
1.59245E+12,0.00627585,0.9473255,0.170855,3.761219,1.2883879,1.277694,0
1.59245E+12,-0.35257006,0.8404862,0.6719936,4.6006937,0.822546,1.96633,0
1.59245E+12,-0.116134204,0.9073207,0.714873,3.537359,2.927363,2.273338,0
1.59245E+12,-0.24046066,1.0946487,0.53568965,3.116289,1.1620669,2.150748,0
1.59245E+12,-0.18895741,1.2975476,0.71870583,2.698417,2.3885,2.992888,0
1.59245E+12,-0.5094753,1.9268453,0.43124586,0.671951,3.738589,3.800916,0
1.59245E+12,-0.7952584,2.0487764,0.9870019,2.6818938,1.223895,5.089177,0
1.59245E+12,-1.5450499,2.5245228,1.2346966,0.453421,3.216249,6.210076,0
1.59245E+12,-1.9077286,3.0512931,0.7565547,-2.5223181,4.791797,6.401956,0
1.59245E+12,-2.2790313,3.0345247,0.834648,-2.8122702,3.530186,6.14505,0
1.59245E+12,-2.7111793,2.8685164,0.43555775,-5.752298,4.1537957,5.66535,0
1.59245E+12,-3.1850092,2.2677252,0.1502537,-6.1163373,2.8170319,4.278484,0
1.59245E+12,-3.3399982,1.9934404,0.1536074,-6.456391,2.494034,1.365639,0
1.59245E+12,-3.1246426,2.1302235,0.050121803,-6.656799,4.852559,-1.646877,0
1.59245E+12,-1.9482126,2.1589694,-1.022104,-6.602433,7.59591,-5.537777,0
1.59245E+12,-1.9496498,1.9026508,-1.3474128,-3.660273,4.505576,-7.321195,0
1.59245E+12,-1.735013,2.1295047,-1.5946286,-1.449389,1.673214,-7.816885,0
1.59245E+12,-1.0005529,2.326894,-1.2393758,-0.143539,3.522724,-8.216102,0
1.59245E+12,-0.6306876,1.9261268,-0.48479334,2.236306,4.816848,-6.5638022,0
1.59245E+12,-0.20213266,1.2910798,-0.06558085,3.6881979,3.953388,-5.110311,0
1.59245E+12,-0.15925321,0.94037855,0.0141893,3.886474,2.0564408,-2.760847,0
1.59245E+12,-0.065828696,0.8471936,0.0807842,3.578933,3.084065,-1.564262,0
1.59245E+12,-0.00426435,0.80623055,0.12941286,3.524034,3.682091,-0.47854102,0
1.59245E+12,-0.067745104,0.72813725,0.39291784,3.8449,3.2290409,0.61250997,0
1.59245E+12,-0.14991075,0.8579734,0.4559195,3.740965,2.9513478,1.429066,0
1.59245E+12,-0.31663755,0.7911389,0.94316417,3.8982,1.9876839,2.071331,0
1.59245E+12,-0.0682242,0.89414537,0.7000209,2.7309299,3.376149,2.325572,0
1.59245E+12,-0.46971002,1.0915346,0.9817318,1.8696021,3.000917,3.424618,0
1.59245E+12,-0.41605082,1.47194,0.57353854,0.71885496,3.0003839,3.806246,0
1.59245E+12,-0.9013791,1.8504289,0.95035064,0.161337,2.636345,5.12169,0
1.59245E+12,-1.5656512,2.5173364,0.9671192,-1.029385,2.643807,5.528369,0
1.59245E+12,-1.906531,2.6656175,0.76326215,-3.745553,3.756711,6.042181,0
1.59245E+12,-2.5044477,2.7578444,0.59893084,-4.833406,3.1592178,5.636568,0
1.59245E+12,-2.5834992,2.5432076,0.30404478,-6.124332,3.194929,4.237443,0
1.59245E+12,-2.948334,2.3915725,-0.02294095,-7.0869303,3.39054,2.19552,0
1.59245E+12,-3.0391233,2.2787442,-0.30752635,-7.1066513,4.250269,-0.22643201,0
1.59245E+12,-2.4804928,2.3120418,-0.8093836,-6.421213,4.745959,-3.782075,0
1.59245E+12,-2.2208204,2.1259115,-1.5170143,-2.722193,0.845998,-6.998197,0
1.59245E+12,-2.0112143,2.1450753,-1.0719304,-4.553048,3.885697,-6.127808,0
1.59245E+12,-1.9865406,2.2459261,-1.4444306,-1.415277,0.525132,-7.6863,0
1.59245E+12,-1.2731607,2.1484292,-1.0240204,0.19491601,3.477952,-8.1127,0
1.59245E+12,-0.2038095,1.5660832,-0.082588896,2.920678,5.4719048,-6.737027,0
1.59245E+12,-0.074692056,1.1423192,-0.097920105,3.3092349,3.4966068,-4.714292,0
1.59245E+12,-0.10439625,0.8335393,-0.04497955,3.473399,2.100147,-3.227755,0
1.59245E+12,-0.0327708,0.7427498,0.0903662,3.3652,2.829824,-2.098861,0
1.59245E+12,0.00675495,0.67160344,0.1282151,2.897759,5.315736,-0.576613,0
1.59245E+12,-0.0500184,0.745864,0.23792902,2.9936988,4.655349,0.715912,0
1.59245E+12,-0.0246261,0.6826228,0.62408364,4.326199,1.4621459,0.900863,0
1.59245E+12,-0.1875201,0.820364,0.8516561,3.292712,2.52175,1.697698,0
1.59245E+12,-0.29411986,0.80431414,0.75320107,2.3690228,3.119776,2.471614,0
1.59245E+12,-0.3183144,1.1186037,1.0512012,1.6702601,1.7035949,2.981695,0
1.59245E+12,-0.65919405,1.2546681,0.86962235,0.602661,2.722691,3.836094,0
1.59245E+12,-0.82616043,1.5497937,0.8717783,-0.155798,2.497232,4.831738,0
1.59245E+12,-1.1802152,2.0863857,0.9105854,-0.70265603,1.6796099,5.250676,0
1.59245E+12,-1.7225565,2.3429437,0.9553812,-1.355048,1.9045359,6.215406,0
1.59245E+12,-2.4402483,2.6002204,0.94603884,-2.59907,3.4369109,6.819828,0
1.59245E+12,-2.7404046,2.4013941,0.69019943,-5.316837,3.729528,5.833778,0
1.59245E+12,-3.0630784,2.3316848,0.29661876,-6.949416,4.115953,3.708707,0
1.59245E+12,-3.1488373,2.1271093,-0.17529474,-6.969137,3.6714308,0.946701,0
1.59245E+12,-2.860419,2.0763247,-0.72434336,-7.088529,4.826975,-2.090866,0
1.59245E+12,-2.2165086,1.9682877,-1.1531379,-5.553489,4.067983,-5.453563,0
1.59245E+12,-2.2045312,1.7752104,-1.3280094,-3.3415391,1.7616919,-6.608574,0
1.59245E+12,-1.655722,1.7950929,-1.5158166,-1.9632009,2.0223289,-7.31853,0
1.59245E+12,-1.0582844,1.8554596,-1.3660978,-0.49691802,3.420388,-7.599954,0
1.59245E+12,-0.8323887,1.7086155,-0.8637614,1.435207,2.957744,-7.156498,0
1.59245E+12,-0.37077585,1.5016443,-0.45413095,2.242169,4.164456,-6.136336,0
1.59245E+12,-0.21363106,1.1526198,-0.114209495,3.223955,3.41186,-4.603961,0
1.59245E+12,-0.0409155,0.7264604,-0.109178945,3.101898,3.1203089,-2.313127,0
1.59245E+12,-0.21842206,0.52835256,0.24391775,3.6759388,2.8719308,-0.811133,0
1.59245E+12,-0.08906505,0.6608237,0.1876235,2.8396618,4.912788,0.114688,0
1.59245E+12,-0.27543494,0.70370317,0.33303034,2.858317,4.2614617,1.462112,0
1.59245E+12,-0.34035298,0.7736517,0.50143397,3.560278,2.850611,2.161941,0
1.59245E+12,-0.38083693,1.0730892,0.51125556,2.895094,2.639543,2.540371,0
1.59245E+12,-0.5353467,1.0517693,0.8111721,3.473399,2.285631,3.419821,0
1.59245E+12,-0.67668116,1.3258145,1.1010277,2.3434389,2.706701,4.040766,0
1.59245E+12,-0.8266395,1.5121844,0.8782461,1.0418531,3.2093198,4.562573,0
1.59245E+12,-1.0772088,1.9486444,1.2330197,0.415045,3.2498279,5.433495,0
1.59245E+12,-1.4571351,2.3846254,0.8758507,-2.7035382,4.293975,5.732508,0
1.59245E+12,-1.9963621,2.769343,0.36896285,-4.4022093,4.671872,6.062435,0
1.59245E+12,-2.536787,2.4620001,0.36177635,-5.4634123,4.543952,5.50545,0
1.59245E+12,-2.7931056,2.3022203,0.16917816,-6.978198,3.934733,2.903344,0
1.59245E+12,-3.085596,2.4181626,-0.4697017,-7.737723,3.399601,0.22715099,0
1.59245E+12,-2.8963513,2.1939437,-1.0613902,-7.330511,3.901687,-2.629196,0
1.59245E+12,-2.5954766,1.9711622,-1.081752,-4.850995,4.022678,-5.238764,0
1.59245E+12,-2.3173592,2.0305705,-1.3689724,-3.079303,2.636878,-7.369165,0
1.59245E+12,-1.9448589,2.3740852,-1.9105949,-1.6631219,2.0154,-8.360012,0
1.59245E+12,-1.2029725,2.2538314,-1.6008568,0.113900006,3.064877,-8.780549,0
1.59245E+12,-0.96174574,1.8921106,-0.84555566,2.387678,3.4550328,-7.647391,0
1.59245E+12,-0.4677936,1.6027343,-0.23590091,3.188777,3.895824,-6.595249,0
1.59245E+12,-0.2296809,1.201488,0.0165848,3.633832,3.717802,-4.932822,0
1.59245E+12,-0.1899156,0.8342579,0.05179865,3.340149,3.68902,-2.778969,0
1.59245E+12,-0.1865619,0.6790295,0.23529395,3.3934488,3.554704,-1.222076,0
1.59245E+12,-0.28884977,0.6004571,0.22379556,3.067786,3.5626988,-0.158208,0
1.59245E+12,-0.34059256,0.56524324,0.6082733,3.174919,3.707675,0.604515,0
1.59245E+12,-0.24908444,0.6699266,0.37087923,2.392475,2.977465,1.348583,0
1.59245E+12,-0.0964911,0.6529185,0.76182485,2.5012069,2.427409,1.761658,0
1.59245E+12,-0.2651343,0.97942525,0.5737781,1.362719,4.359534,3.019538,0
1.59245E+12,-0.3710154,1.0968047,1.0435356,1.2454591,3.961916,3.740154,0
1.59245E+12,-0.67212975,1.5981829,0.781468,-0.008690001,3.302595,4.962856,0
1.59245E+12,-1.0750529,2.0219467,0.9814922,-0.84603304,2.43647,5.524638,0
1.59245E+12,-1.763759,2.6759183,0.48227,-2.493536,2.715762,6.460053,0
1.59245E+12,-2.3362837,2.721912,0.985325,-2.552166,2.615558,6.668989,0
1.59245E+12,-2.6393142,2.8474362,0.2633213,-5.596662,3.634654,6.04911,0
1.59245E+12,-3.2115993,2.5729117,0.32249016,-5.937249,3.14536,4.453308,0
1.59245E+12,-3.34431,2.4464295,-0.57773876,-8.487121,4.0194798,0.909391,0
1.59245E+12,-2.9531248,2.1675932,-1.3876573,-7.640184,3.972576,-2.47889,0
1.59245E+12,-2.7847211,1.8123405,-1.5079114,-5.107901,1.9711609,-5.307521,0
1.59245E+12,-2.396171,1.8866011,-1.9089181,-3.568064,1.010695,-6.98807,0
1.59245E+12,-1.9673765,1.9812233,-2.0035405,-1.631675,0.720743,-7.898434,0
1.59245E+12,-1.6950083,1.9917635,-2.0718122,-0.93344504,0.847597,-8.192117,0
1.59245E+12,-1.2633392,2.0667427,-1.2024852,-0.39298302,1.7382399,-8.353083,0
1.59245E+12,-0.46156532,1.8494707,-0.28021765,1.7619361,4.28065,-8.36854,0
1.59245E+12,-0.1913529,1.2781441,-0.1717015,3.266595,5.846604,-5.757373,0
1.59245E+12,-0.15494129,0.9533142,0.014428849,3.7420309,4.7651467,-2.96925,0
1.59245E+12,-0.13170496,0.87282544,0.075035,3.6146438,3.864377,-1.248726,0
1.59245E+12,-0.39473087,1.0040989,-0.02246185,3.111492,2.918835,0.259664,0
1.59245E+12,-0.3322083,0.9020506,0.55221856,4.074623,3.166147,1.265968,0
1.59245E+12,-0.49630004,0.95618886,0.6921158,2.9387999,3.394804,1.890111,0
1.59245E+12,-0.28837067,0.6852578,0.70600975,3.411571,2.24459,2.253084,0
1.59245E+12,-0.24573076,1.1758562,0.6039614,1.306754,3.056882,2.277069,0
1.59245E+12,-0.3398739,1.0656632,0.7529615,1.8322921,2.807438,3.040858,0
1.59245E+12,-0.6762021,1.5854867,1.0037704,0.331897,3.39587,4.040766,0
1.59245E+12,-1.0166026,1.7062199,0.7098425,-0.626437,4.092501,4.835469,0
1.59245E+12,-1.6679392,2.2600596,0.8370436,-1.9514749,3.72633,5.30824,0
1.59245E+12,-2.0212753,2.9068446,0.3974693,-4.759852,3.721,5.001765,0
1.59245E+12,-2.634763,3.0663848,0.1104884,-6.1579113,3.037694,4.566304,0
1.59245E+12,-3.2159111,2.7717383,-0.27566618,-7.3022623,1.915196,3.776931,0
1.59245E+12,-3.5512815,2.416246,-0.5921117,-8.12628,4.456007,1.317136,0
1.59245E+12,-3.0273852,2.407143,-1.2966282,-7.759043,5.411143,-2.449042,0
1.59245E+12,-2.3686228,2.2162218,-1.7764469,-5.8471723,2.869266,-6.352734,0
1.59245E+12,-2.2677722,1.8537827,-1.9862928,-3.658674,0.825211,-7.188478,0
1.59245E+12,-1.7285452,2.141482,-2.0871434,-2.22597,2.169437,-8.219833,0
1.59245E+12,-1.0561284,2.1316607,-1.5673198,-0.026278999,3.964048,-8.675548,0
1.59245E+12,-0.63284355,1.900974,-0.7657855,2.0694768,4.808853,-7.694295,0
1.59245E+12,-0.16715835,1.4803243,-0.09720145,3.400378,6.685546,-5.816536,0
1.59245E+12,-0.09337695,0.93438977,-0.11013715,3.372129,5.385026,-1.38624,0
1.59245E+12,-0.1760217,0.8110215,-0.0480937,3.55708,2.698706,0.132277,0
1.59245E+12,-0.21219376,0.83713245,0.10905109,3.247407,2.869799,1.229724,0
1.59245E+12,-0.29316166,0.796409,0.29182774,3.1296139,3.4049308,2.223769,0
1.59245E+12,-0.4903113,0.8071888,0.6099502,3.0219479,2.551065,2.855907,0
1.59245E+12,-0.34658128,0.59351015,0.78577983,3.504313,1.8539009,2.841516,0
1.59245E+12,-0.43401703,0.91474664,0.7055306,1.7827231,2.56439,3.088828,0
1.59245E+12,-0.50851715,0.841684,0.71654993,1.9660751,1.813393,3.248728,0
1.59245E+12,-0.67260885,1.1437565,1.133846,1.2582511,2.6800508,3.727362,0
1.59245E+12,-0.60313934,1.4731377,0.63654023,-1.166366,3.76897,3.84249,0
1.59245E+12,-1.143085,2.104352,0.92280245,-1.669518,2.712564,4.945267,0
1.59245E+12,-1.4818088,2.513743,0.5950981,-3.8942602,2.8756618,5.01509,0
1.59245E+12,-2.1700358,3.032129,0.3854918,-5.6249113,2.9172359,5.474536,0
1.59245E+12,-2.9102454,3.2002933,-0.3633415,-6.793247,2.524415,4.597751,0
1.59245E+12,-3.3938968,2.8301885,-0.6342725,-8.231814,4.265726,2.357019,0
1.59245E+12,-2.9749238,2.5824938,-1.2599771,-7.089595,5.401549,-1.522155,0
1.59245E+12,-2.354729,2.3558795,-1.8432814,-5.975625,4.202299,-5.464756,0
1.59245E+12,-2.2071662,1.9486444,-2.0401914,-2.981764,0.771378,-6.852688,0
1.59245E+12,-1.6950083,1.9905657,-2.1120565,-1.807565,0.879044,-7.785438,0
1.59245E+12,-1.0321734,1.6645381,-1.6909275,-0.079578996,1.165265,-8.278463,0
1.59245E+12,-0.62206376,1.5907568,-0.84771156,0.95390797,2.4060888,-7.975719,0
1.59245E+12,-0.75717,1.4467872,-0.5521069,1.151118,4.05146,-6.464131,0
1.59245E+12,-0.39520997,1.050332,-0.35711318,2.008715,5.994778,-4.71749,0
1.59245E+12,-0.48072928,0.8498286,-0.2473993,2.9963639,4.917585,-2.466098,0
1.59245E+12,-0.43737072,0.8218013,-0.20907131,3.512308,3.360692,-1.186898,0
1.59245E+12,-0.25866646,0.8668367,-0.05168695,3.687665,3.684223,-0.30265102,0
1.59245E+12,-0.21985936,0.80814695,0.37375385,4.152974,3.512064,1.112464,0
1.59245E+12,-0.21363106,0.80551183,0.4444211,3.906195,3.668233,2.329836,0
1.59245E+12,-0.582538,0.83258104,1.0099986,3.77028,2.89485,3.09096,0
1.59245E+12,-0.3599961,0.74203116,0.49736166,2.690955,3.548841,3.333475,0
1.59245E+12,-0.59595287,1.1106986,0.69139713,0.985888,2.8122349,3.521091,0
1.59245E+12,-0.7195607,1.2422116,0.6224068,1.273175,2.209945,3.843023,0
1.59245E+12,-1.0132489,1.3799528,0.84327185,0.088316,2.8548748,4.729935,0
1.59245E+12,-1.1203277,1.9364275,0.31123132,-1.928023,3.548308,4.690493,0
1.59245E+12,-1.8198137,2.1594484,0.61138743,-2.6752892,3.184802,5.470805,0
1.59245E+12,-1.9743235,2.3522863,0.42477798,-3.497708,2.8548748,5.060928,0
1.59245E+12,-2.3729348,2.3927703,-0.06174805,-6.2383943,3.503536,4.394678,0
1.59245E+12,-2.4529443,2.1994534,-0.22200699,-6.10088,3.207188,2.965705,0
1.59245E+12,-2.5334334,1.9752346,-0.22416297,-6.405223,3.232239,1.184952,0
1.59245E+12,-2.4443207,2.072492,-0.8441183,-7.047488,4.53116,-1.44487,0
1.59245E+12,-1.5939181,2.071294,-0.99000424,-5.676612,5.804497,-3.91799,0
1.59245E+12,-0.9904917,1.862167,-1.5428857,-3.94223,6.367345,-6.654412,0
1.59245E+12,-0.9428212,1.3991168,-1.7608763,-0.095569,3.127771,-6.548878,0
1.59245E+12,-0.87478906,1.3301264,-1.7798007,1.4080241,2.303753,-6.005218,0
1.59245E+12,-0.6991989,1.1198015,-1.3948438,2.85885,3.0542169,-5.327242,0
1.59245E+12,-0.58876634,1.0029011,-1.0048563,3.4888558,3.883565,-4.611956,0
1.59245E+12,-0.5396586,0.7621533,-0.75021476,4.169497,3.030765,-3.632302,0
1.59245E+12,-0.34298807,0.7269395,-0.4974895,4.038912,2.6923099,-2.843995,0
1.59245E+12,-0.22992046,0.5475165,-0.48934478,3.597055,2.795712,-1.827031,0
1.59245E+12,-0.09816795,0.50200206,-0.265126,3.399312,2.7877169,-0.569684,0
1.59245E+12,-0.1242789,0.44498914,-0.0571966,3.302306,2.662462,0.310299,0
1.59245E+12,-0.00330615,0.46990237,0.1775624,3.128015,3.2205129,0.918452,0
1.59245E+12,-0.19925806,0.5899169,0.22954476,2.291738,3.051019,2.241358,0
1.59245E+12,-0.1750635,0.37887335,0.57689226,3.0427349,1.681742,2.929461,0
1.59245E+12,-0.25627095,0.6900488,0.3754307,1.658534,2.7301528,2.907608,0
1.59245E+12,-0.49366498,0.50607437,0.7953619,2.196864,1.3134389,3.586117,0
1.59245E+12,-0.5063611,0.94684637,0.57928777,-0.004959,4.154329,3.473654,0
1.59245E+12,-0.7408806,1.1372887,0.61857396,-0.934511,3.542978,3.88513,0
1.59245E+12,-1.0261847,1.5591362,0.43531817,-2.061273,3.160817,4.322723,0
1.59245E+12,-1.6336834,1.8751026,0.41591462,-3.6240292,3.3047268,4.445313,0
1.59245E+12,-2.0792465,2.1893923,0.0194594,-4.558911,2.72429,4.304068,0
1.59245E+12,-2.5626583,2.2425723,-0.26919836,-6.425477,3.655974,3.4581969,0
1.59245E+12,-2.52457,2.3918118,-0.97419393,-7.40673,3.6911519,1.6747789,0
1.59245E+12,-2.5866132,2.3877397,-1.1294224,-7.175941,2.976399,-0.556892,0
1.59245E+12,-2.1456017,2.4243908,-1.5361784,-6.395629,3.94486,-2.748055,0
1.59245E+12,-1.7204006,2.1223183,-1.7580016,-3.852153,2.696574,-5.605468,0
1.59245E+12,-1.499775,1.9754741,-1.7196735,-2.160944,2.881525,-6.670935,0
1.59245E+12,-0.54995924,1.6501652,-2.577023,-0.699991,2.6016998,-7.032842,0
1.59245E+12,-0.39041895,1.2834141,-2.3798735,2.523593,1.265469,-6.291439,0
1.59245E+12,-0.42395598,1.3370733,-2.1956594,3.644492,2.2632449,-5.386938,0
1.59245E+12,-0.1745844,1.1820844,-1.5024017,4.690238,4.293975,-4.641271,0
1.59245E+12,-0.06511005,1.129144,-0.94808304,5.298924,4.0317388,-3.687201,0
1.59245E+12,-0.24189794,0.9250474,-0.5949863,5.37994,2.558527,-2.3061981,0
1.59245E+12,-0.09673065,0.9628962,-0.42802,4.712091,3.026501,-1.731091,0
1.59245E+12,0.0050781,0.7403543,-0.18224171,3.9536319,3.697015,-0.147015,0
1.59245E+12,0.05274855,0.5983012,0.10042731,3.738833,3.559501,1.199343,0
1.59245E+12,-0.0428319,0.5803349,0.15600291,2.980907,3.308991,2.292526,0
1.59245E+12,-0.3484977,0.8297065,0.35099658,2.440445,1.8245859,3.074437,0
1.59245E+12,-0.47761518,0.8675553,0.09683405,1.635615,1.451486,3.646346,0
1.59245E+12,-0.6618291,1.0671005,0.57832956,2.3285148,0.356171,3.682057,0
1.59245E+12,-0.69800115,1.2208916,0.37662846,1.805642,0.462238,3.54401,0
1.59245E+12,-0.7672311,1.3162324,0.80159014,1.871201,1.747834,3.811043,0
1.59245E+12,-1.0434322,1.5375767,0.81764,0.587204,2.531344,4.219854,0
1.59245E+12,-1.1675192,1.8235995,0.74290043,-0.57367,2.1593099,4.587091,0
1.59245E+12,-1.7766949,2.1685514,0.7467332,-2.5201862,2.473247,4.932475,0
1.59245E+12,-2.2179458,2.4284632,0.69714636,-4.503479,3.9501898,5.033212,0
1.59245E+12,-2.8335893,2.8127015,0.887349,-6.706901,4.21136,4.257164,0
1.59245E+12,-2.429229,3.1552577,-0.5930699,-10.622852,7.1588497,1.239851,0
1.59245E+12,-2.4900746,2.7072995,-0.89394474,-9.949141,7.760074,-1.208751,0
1.59245E+12,-1.9587529,2.447148,-1.7079357,-7.560234,4.672405,-4.794242,0
1.59245E+12,-1.3536495,1.8918711,-2.3302865,-4.530662,3.09739,-5.645443,0
1.59245E+12,-1.0774484,1.412292,-2.289563,-0.525167,2.650203,-6.358064,0
1.59245E+12,-0.4083852,1.2752694,-2.2924378,1.193758,2.144386,-6.656544,0
1.59245E+12,-0.6098467,1.2002903,-1.7596785,2.7469199,3.023303,-5.95938,0
1.59245E+12,-0.321189,1.2225684,-1.3169901,3.744696,3.416657,-5.222241,0
1.59245E+12,-0.34250897,1.0261375,-0.79237556,4.328864,4.234812,-4.143449,0
1.59245E+12,-0.27783045,1.0076921,-0.30704725,4.689172,4.625501,-2.517799,0
1.59245E+12,-0.27519542,0.73101187,-0.15038155,4.27663,4.272655,-0.76103103,0
1.59245E+12,-0.1266744,0.55566126,0.058266502,3.6269028,3.9917638,0.403574,0
1.59245E+12,-0.1932693,0.48475447,0.1344434,3.0134199,3.768437,1.586301,0
1.59245E+12,-0.41269708,0.49146184,0.25685346,2.5182629,2.8170319,2.208845,0
1.59245E+12,-0.2785491,0.5779394,0.22475377,2.044426,3.329778,2.482807,0
1.59245E+12,-0.8882038,0.41193122,0.729246,1.4783801,2.25525,3.044589,0
1.59245E+12,-0.17482395,0.7700585,0.2604467,0.813729,2.877261,2.301587,0
1.59245E+12,-0.6579963,0.8462354,0.619053,0.63570696,0.694626,3.13893,0
1.59245E+12,-0.7473484,1.1205201,0.5819228,0.314308,1.5591519,3.700712,0
1.59245E+12,-1.0369644,1.2561054,0.9438828,-0.49052203,1.8416419,4.646254,0
1.59245E+12,-1.4935467,1.8056332,0.71966404,-2.1790662,1.806997,4.85519,0
1.59245E+12,-1.9312046,2.187955,0.5812041,-3.290904,0.712748,4.738996,0
1.59245E+12,-2.6527293,2.4682286,0.15720065,-5.4730062,2.663528,5.047603,0
1.59245E+12,-3.3138871,2.1893923,0.0228131,-6.176033,3.223711,4.120716,0
1.59245E+12,-3.1133838,2.204963,-0.73679996,-8.133742,4.7406287,1.485564,0
1.59245E+12,-3.4540238,1.8427633,-0.99383706,-7.494142,2.4796429,-1.306823,0
1.59245E+12,-2.5811038,1.996315,-1.8451979,-7.171677,1.6332389,-4.329999,0
1.59245E+12,-2.3013093,1.6020157,-1.7805192,-5.11483,1.1455439,-6.005218,0
1.59245E+12,-1.5723586,1.6185446,-1.8171705,-3.3991032,1.5495579,-6.915049,0
1.59245E+12,-0.9212618,1.728019,-1.7568039,-0.89400303,1.813926,-7.284951,0
1.59245E+12,-1.0817602,1.5011652,-1.2487183,0.408649,1.34382,-6.23654,0
1.59245E+12,-0.4586907,1.2225684,-0.7082935,1.2406621,3.5200589,-5.860242,0
1.59245E+12,-0.15901366,0.8282692,-0.2536276,2.644584,5.162765,-4.522412,0
1.59245E+12,-0.1420056,0.37408236,-0.116605,3.3508089,5.159034,-2.499144,0
1.59245E+12,-0.24189794,0.307727,-0.05120785,3.406774,4.633496,-1.142126,0
1.59245E+12,-0.3628707,0.24232987,0.09395945,3.3214939,4.502911,-0.16140601,0
1.59245E+12,-0.17218891,0.24328804,0.47172982,3.169589,4.714512,0.413701,0
1.59245E+12,-0.13889144,0.3949232,-0.0313252,1.5039641,4.385651,1.251577,0
1.59245E+12,-0.2986713,0.3393476,0.5201189,2.3445048,3.208787,2.3053179,0
1.59245E+12,-0.067984655,0.6407015,0.0496427,0.87609,4.54715,2.529178,0
1.59245E+12,-0.5571457,0.6668125,0.6145016,1.039721,2.7754579,4.021045,0
1.59245E+12,-0.69512653,0.95690745,0.31434545,0.526975,2.373576,4.463435,0
1.59245E+12,-1.1059549,1.0611117,0.8257847,0.017427001,1.6662849,5.184051,0
1.59245E+12,-1.231,1.6216587,0.5737781,-2.19399,1.864561,5.395119,0
1.59245E+12,-1.7843603,1.903609,0.74146307,-3.019607,1.336358,5.462277,0
1.59245E+12,-2.0672688,2.4703844,0.04844495,-5.117495,1.6199139,5.338088,0
1.59245E+12,-2.4661198,2.340788,0.30572164,-4.968788,0.508609,4.709148,0
1.59245E+12,-2.7547774,2.2447283,0.376868,-5.65316,1.3827289,4.115919,0
1.59245E+12,-3.1244032,2.2040048,-0.35447815,-7.107184,2.338398,2.512655,0
1.59245E+12,-3.2310028,2.0008664,-0.3757981,-7.068808,2.344261,0.18557699,0
1.59245E+12,-2.6132035,2.0959678,-1.1600848,-7.349699,4.379255,-2.946864,0
1.59245E+12,-2.2428591,1.869593,-1.405863,-5.1063023,3.557369,-5.519122,0
1.59245E+12,-2.1360197,1.7411941,-1.436765,-2.7046041,1.3001139,-6.889465,0
1.59245E+12,-1.7326176,1.6532793,-1.675836,-1.744138,1.734509,-7.263631,0
1.59245E+12,-1.1665609,1.5912359,-1.1057069,-0.406841,2.144919,-7.731072,0
1.59245E+12,-1.0602008,1.5711137,-0.87597847,0.72738296,2.7557368,-7.082944,0
1.59245E+12,-0.89970225,0.9099557,-0.34465662,1.9367601,1.9487749,-5.48501,0
1.59245E+12,-0.08714865,0.65100217,0.1023437,2.5598369,2.573451,-4.972797,0
1.59245E+12,0.1248531,0.61650693,5.59E-05,1.759271,6.304451,-3.684536,0
1.59245E+12,-0.19015515,0.4437914,0.0410189,1.53168,7.407761,-2.242771,0
1.59245E+12,-0.10631265,0.379592,0.35219437,3.269793,4.891468,0.45261,0
1.59245E+12,-0.11182229,0.5942288,0.09491765,2.214453,5.156902,1.097007,0
1.59245E+12,-0.14368245,0.6548349,0.3533921,2.648315,4.45654,1.951406,0
1.59245E+12,-0.3432276,0.7417916,0.33350945,2.36316,4.204964,2.935857,0
1.59245E+12,-0.55379206,0.69987035,0.57809,2.4521708,2.8122349,3.67193,0
1.59245E+12,-0.4395267,0.75065494,0.6073151,2.0572178,2.289895,3.644214,0
1.59245E+12,-0.6704529,0.96577084,0.74505633,0.952842,2.206747,3.648478,0
1.59245E+12,-0.7344128,1.1478288,0.5172443,0.38839498,2.1934218,3.996527,0
1.59245E+12,-1.1787779,1.3100042,0.65043414,-0.759154,2.761067,4.596685,0
1.59245E+12,-1.4403665,1.6441765,0.664328,-2.316047,3.06541,4.508207,0
1.59245E+12,-1.7771738,2.1486688,0.33207214,-3.7620761,3.715137,4.822144,0
1.59245E+12,-2.2632208,2.3355176,0.35411075,-5.906335,3.911814,4.534324,0
1.59245E+12,-2.8050828,2.5321882,-0.2565022,-6.881192,2.7616,3.638351,0
1.59245E+12,-3.3898246,2.3494115,-0.70470023,-7.589549,2.228067,0.578398,0
1.59245E+12,-2.9337213,2.4160066,-1.1964964,-7.761175,3.790823,-2.5695,0
1.59245E+12,-1.9225807,2.2535918,-1.845677,-6.63921,5.015124,-5.516457,0
1.59245E+12,-1.9465357,1.8703117,-1.779561,-3.104887,1.3997849,-6.813246,0
1.59245E+12,-1.5321143,1.9117539,-1.8303457,-1.608756,1.003766,-7.069086,0
1.59245E+12,-0.8719145,1.7931764,-1.9079599,-0.820449,3.649045,-7.238047,0
1.59245E+12,-0.608649,1.5969851,-1.5119838,1.766733,3.016907,-6.579259,0
1.59245E+12,-0.44000578,1.3548,-0.9408965,2.703747,4.485322,-5.457294,0
1.59245E+12,-0.52217144,1.1983739,-0.6639768,3.648223,5.856731,-3.898269,0
1.59245E+12,-0.6232616,0.84695405,-0.44023705,4.372037,2.864469,-2.677699,0
1.59245E+12,-0.42132092,0.56668055,-0.1266661,4.480236,2.730686,-1.760406,0
1.59245E+12,-0.1204461,0.51757276,0.02592725,3.24261,4.5572767,-0.882555,0
1.59245E+12,0.0405315,0.44115633,0.25972804,3.562943,4.302503,0.389716,0
1.59245E+12,-0.10439625,0.48235893,0.30188885,2.668036,4.6526837,1.606022,0
1.59245E+12,-0.23566966,0.51589596,0.3232088,2.731463,3.6005418,2.721591,0
1.59245E+12,-0.5169014,0.5937497,0.611627,2.5219939,2.46312,2.907075,0
1.59245E+12,-0.3628707,0.5755439,0.48203045,2.2528288,2.434871,3.264185,0
1.59245E+12,-0.8517922,0.65914685,0.8612381,0.960837,2.216874,3.575457,0
1.59245E+12,-0.9507264,1.0014638,0.5117346,-0.143006,2.880992,3.745484,0
1.59245E+12,-1.0688245,1.0908159,0.68181515,-0.967024,2.630482,3.94909,0
1.59245E+12,-1.4089855,1.5366185,0.7028955,-2.1849291,2.7839859,4.487953,0
1.59245E+12,-1.8119087,1.9517586,0.35267347,-4.836071,2.974267,4.324322,0
1.59245E+12,-2.4862418,2.0123649,-0.001621,-5.331761,1.739306,4.336581,0
1.59245E+12,-0.30801374,0.6914861,1.0325164,2.940932,2.835687,0.002225,0
1.59245E+12,-0.2550732,0.88456345,0.803267,4.095943,2.1753,0.046997,0
1.59245E+12,-0.29699445,0.791618,0.9376546,4.812828,2.59104,0.558144,0
1.59245E+12,-0.55043834,1.1209992,0.94771564,2.4095309,3.624527,0.82890797,0
1.59245E+12,-0.7073436,1.3662984,0.7977573,2.9265409,3.935799,1.914096,0
1.59245E+12,-1.1962651,1.7234675,0.8526143,1.10528,5.002865,2.771693,0
1.59245E+12,-1.6753651,2.0432668,1.2416435,0.565884,4.281183,3.821703,0
1.59245E+12,-2.1736293,2.3357573,0.9628073,0.40598398,4.428824,5.310905,0
1.59245E+12,-2.7265105,2.2176592,1.0706048,-0.593924,3.821204,6.281498,0
1.59245E+12,-2.8903627,1.9570287,1.0545549,-2.368814,3.398535,7.030363,0
1.59245E+12,-2.9095268,1.8315046,0.8351272,-3.3905752,3.371885,7.353361,0
1.59245E+12,-3.0173242,1.8092264,0.5373665,-5.645698,3.91821,6.248985,0
1.59245E+12,-2.9516876,1.7941347,-0.21625781,-6.714896,3.20399,4.320058,0
1.59245E+12,-2.2581904,1.5339835,-0.7173964,-8.01968,2.815966,2.129961,0
1.59245E+12,-2.1089506,1.3073691,-0.864001,-9.6506605,4.297706,-0.243488,0
1.59245E+12,-2.033253,1.2235267,-0.9614979,-8.2909775,5.109465,-3.650957,0
1.59245E+12,-1.8602978,1.3227003,-0.89346564,-3.3857782,1.785677,-5.622524,0
1.59245E+12,-1.511513,1.4043869,-0.6874527,-1.777717,1.722783,-5.728058,0
1.59245E+12,-0.9809097,1.1837614,-0.3230971,-0.733037,1.946643,-5.99669,0
1.59245E+12,-0.66757834,1.0678191,-0.10103425,-0.108361,3.335641,-5.996157,0
1.59245E+12,-0.5461265,0.691007,0.024729501,0.679946,4.539155,-5.806942,0
1.59245E+12,-0.33675975,0.57099247,-0.044500448,1.5903101,3.777498,-5.159347,0
1.59245E+12,-0.2469285,0.44882196,0.15672155,1.826962,3.493409,-3.766085,0
1.59245E+12,-0.19782075,0.44786376,0.14043215,1.7320881,4.286513,-2.60681,0
1.59245E+12,-0.1741053,0.45552936,0.3543503,2.1515589,4.164456,-1.594643,0
1.59245E+12,-0.35927743,0.5544635,0.54958355,2.4324498,4.314229,-0.887352,0
1.59245E+12,-0.12739305,0.48714995,0.65690196,2.60834,4.2955737,0.074713,0
1.59245E+12,-0.25483364,0.55566126,0.9977816,3.3934488,3.240234,0.731369,0
1.59245E+12,0.06903795,0.9327129,0.8938168,4.392291,2.7472088,0.87368,0
1.59245E+12,-0.5525943,1.3241377,0.18546756,1.962877,2.811702,1.71582,0
1.59245E+12,-1.075532,1.5085912,0.84518826,1.7283571,4.044531,2.206713,0
1.59245E+12,-1.490193,2.0262587,0.73643255,-1.051238,4.425626,4.113787,0
1.59245E+12,-2.214113,2.4897878,1.2397271,-0.040137,1.9162619,5.841773,0
1.59245E+12,-1.9633043,2.1750193,1.0138314,0.78015,2.7301528,5.639766,0
1.59245E+12,-2.552837,2.4025917,1.0684488,-0.034274,1.469075,6.622085,0
1.59245E+12,-2.7952614,2.2787442,1.1776836,-0.549685,1.235621,6.218604,0
1.59245E+12,-3.0570896,2.1965787,0.79296637,-3.115014,2.519618,6.583176,0
1.59245E+12,-3.2238164,1.8810914,0.29326504,-4.780106,3.306326,5.91053,0
1.59245E+12,-2.6407516,1.8767796,-0.39041066,-7.0576153,3.537648,4.598817,0
1.59245E+12,-1.8835341,1.5210478,-0.6048079,-9.021187,4.357402,2.297856,0
1.59245E+12,-1.7874746,1.1737002,-1.0673789,-9.024918,4.787,-1.46086,0
1.59245E+12,-2.0493026,0.93678534,-0.9133483,-7.114646,3.176807,-4.320938,0
1.59245E+12,-1.9743235,1.1986134,-0.91358787,-4.7886343,1.497857,-5.397598,0
1.59245E+12,-1.5129502,1.2582614,-0.45676598,-2.194523,0.691428,-5.149753,0
1.59245E+12,-1.0642731,1.208914,-0.0318043,-1.908302,1.647097,-5.569757,0
1.59245E+12,-0.7921443,0.9684059,-0.12498925,-1.063497,3.718335,-5.987629,0
1.59245E+12,-0.51450586,0.79329485,-0.0198268,0.24128701,4.177248,-5.798414,0
1.59245E+12,-0.27351853,0.56715965,0.18594666,0.66822,4.05679,-4.917898,0
1.59245E+12,-0.060079496,0.53242487,0.23816855,1.9399581,3.244498,-3.903599,0
1.59245E+12,-0.10152165,0.41384763,0.8935774,2.915881,4.265726,-2.186806,0
1.59245E+12,-0.22177574,0.5319458,0.33159307,2.6392539,3.5115309,-2.965519,0
1.59245E+12,-0.14176604,0.61483014,0.67678463,4.178025,3.251427,-0.717858,0
1.59245E+12,-0.22608764,0.4873895,0.4286108,2.747453,3.9917638,-1.128268,0
1.59245E+12,-0.23878379,0.67735267,0.771886,2.599279,3.559501,-0.119298995,0
1.59245E+12,-0.4031151,0.8287482,0.9192092,3.4936528,2.882591,0.103495,0
1.59245E+12,-0.45749298,1.0831504,0.78913355,2.297601,3.369753,1.453584,0
1.59245E+12,-0.8022054,1.4012728,0.72445506,2.338109,3.7119389,2.144885,0
1.59245E+12,-1.2300417,1.9244499,0.8741738,1.4789131,3.03876,2.832455,0
1.59245E+12,-2.134343,2.462479,1.1417512,0.206109,3.474221,5.044405,0
1.59245E+12,-1.7141721,2.1716657,0.8645918,1.233733,3.3217828,4.026375,0
1.59245E+12,-2.3389187,2.3079696,0.8938168,-0.382856,3.521658,6.282564,0
1.59245E+12,-2.4704316,2.3568377,0.8717783,-1.066162,3.433713,6.758533,0
1.59245E+12,-2.836464,1.8782167,0.5776109,-2.719528,2.348525,6.791579,0
1.59245E+12,-2.7892728,1.6698084,0.4832282,-4.700689,3.883565,6.254315,0
1.59245E+12,-2.489356,1.7440687,-0.0188686,-6.7713943,4.30197,5.547024,0
1.59245E+12,-1.6475773,1.6065671,-0.56887543,-7.999426,4.350473,2.73385,0
1.59245E+12,-1.8914392,1.1092613,-0.7509334,-8.835703,6.498996,-0.18432501,0
1.59245E+12,-1.8030453,1.1195619,-1.1306202,-7.949857,6.731384,-3.903599,0
1.59245E+12,-1.8243653,1.1598064,-0.9650911,-4.129846,2.619289,-5.025564,0
1.59245E+12,-1.5007331,1.1760957,-0.5631262,-2.5041962,1.3635409,-4.980259,0
1.59245E+12,-1.248008,1.1245925,-0.25338805,-1.30388,2.1188018,-5.25049,0
1.59245E+12,-0.881736,1.0064943,-0.10295065,-0.018283999,3.2924678,-5.532447,0
1.59245E+12,-0.7964562,0.844319,-0.117802754,0.58347297,4.0658507,-5.373613,0
1.59245E+12,-0.68410724,0.66202146,0.13324565,1.364851,4.523698,-4.611423,0
1.59245E+12,-0.33101055,0.63183814,0.1100093,2.066279,3.209853,-3.700526,0
1.59245E+12,-0.04929975,0.62225616,0.28895316,2.916414,2.506826,-2.954859,0
1.59245E+12,-0.19183199,0.56165,0.19481,2.968648,3.226909,-2.710212,0
1.59245E+12,0.025200302,0.5673992,0.96041185,3.4936528,2.414617,-2.494347,0
1.59245E+12,-0.14943165,0.49960655,0.5368874,3.667944,2.2424579,-1.705507,0
1.59245E+12,0.04316655,0.63615,0.9424456,4.502089,2.303753,-1.4800481,0
1.59245E+12,-0.21315196,0.9152258,0.42549667,3.403043,3.268483,-0.597933,0
1.59245E+12,-0.38946074,1.0848272,0.5100578,3.4185,3.275945,-0.032420002,0
1.59245E+12,-0.7971748,1.4460685,0.8027879,1.647874,4.055191,1.279826,0
1.59245E+12,-1.2063262,1.7179579,1.0380261,1.654803,3.626659,1.994579,0
1.59245E+12,-1.4851625,1.994159,1.3916018,2.2970679,4.101562,3.734824,0
1.59245E+12,-1.809034,2.3405483,1.4519684,1.367516,4.514104,4.814149,0
1.59245E+12,-1.9896548,2.6220195,1.32333,1.684118,2.783453,5.661086,0
1.59245E+12,-2.2948413,2.5939922,1.0636579,1.3499271,2.588908,6.110938,0
1.59245E+12,-2.6481776,2.4313378,1.0959971,-1.885383,3.909149,6.962139,0
1.59245E+12,-2.788075,2.1759775,0.8360853,-3.7562132,4.146334,7.286736,0
1.59245E+12,-2.7174077,2.0303311,0.5308987,-5.0562,3.284473,6.511754,0
1.59245E+12,-1.9673765,2.0454228,-0.07468375,-7.027234,3.531252,4.886637,0
1.59245E+12,-1.9944458,1.3315637,-0.6093594,-9.138447,5.950539,2.437502,0
1.59245E+12,-2.0449908,1.1423192,-1.0683372,-10.05574,8.253632,-1.729492,0
1.59245E+12,-2.09338,1.3183885,-1.1191218,-5.013027,2.672056,-5.002645,0
1.59245E+12,-1.7026739,1.4146875,-0.31423375,-2.5665572,0.587493,-5.2345,0
1.59245E+12,-0.82951415,1.0539253,0.20463154,-0.923851,1.2537429,-6.551543,0
1.59245E+12,-1.2832218,1.2745508,-0.091452256,-1.8550019,-0.507289,-5.855978,0
1.59245E+12,-0.51354766,0.70681727,0.08102375,-1.054436,4.326488,-6.153392,0
1.59245E+12,-0.2373465,0.5669201,0.17492735,-0.113690995,3.865443,-5.505797,0
1.59245E+12,-0.19829985,0.4883477,0.16438715,0.665022,3.9368649,-4.558123,0
1.59245E+12,-0.1803336,0.41959685,0.2824853,1.3078201,3.7337918,-3.5006511,0
1.59245E+12,-0.20045581,0.4183991,0.3749516,1.8360231,4.034404,-2.394143,0
1.59245E+12,-0.20117445,0.5415278,0.65402734,2.274682,4.064785,-1.319615,0
1.59245E+12,-0.01049265,0.4413959,0.57042444,2.969714,3.897956,-0.503059,0
1.59245E+12,0.13084185,0.853901,1.0325164,3.4472818,2.66033,-0.352753,0
1.59245E+12,0.17060715,0.90851843,0.7421817,3.774544,2.6789849,-0.105973996,0
1.59245E+12,-0.0778062,1.1751375,1.0346723,5.22537,-1.237499,-0.822326,0
1.59245E+12,-0.4519833,1.287247,0.7625435,4.465312,2.069766,-0.336763,0
1.59245E+12,-0.66566193,1.6532793,1.1393557,3.080045,2.79358,1.078352,0
1.59245E+12,-1.2290835,2.0061364,1.0322769,3.225021,3.112314,2.157144,0
1.59245E+12,-1.6152382,2.2356255,1.2061901,2.364759,3.986434,3.297231,0
1.59245E+12,-2.0021114,2.4555323,1.203555,1.547137,3.968312,4.642523,0
1.59245E+12,-2.2660956,2.2008908,1.3034475,1.288632,4.5450177,5.730376,0
1.59245E+12,-2.4814508,2.0363197,0.9939488,-0.947303,4.850427,6.660461,0
1.59245E+12,-3.0173242,1.5584176,1.0821031,-1.731879,5.565713,7.171075,0
1.59245E+12,-2.5533159,1.7632328,0.8164422,-5.087647,5.6600537,6.754802,0
1.59245E+12,-1.5941577,1.7517344,-0.92963773,-5.576408,4.525297,5.587532,0
1.59245E+12,-1.9915712,1.1392051,-0.3666952,-8.375724,6.025159,0.577332,0
1.59245E+12,-2.2555554,1.1123755,-0.7595572,-10.264143,8.519599,-3.292248,0
1.59245E+12,-1.9975599,1.3023386,-1.0256972,-4.299873,1.02402,-4.802237,0
1.59245E+12,-1.6339229,1.2656875,-0.34297973,-2.626786,-0.644803,-4.389695,0
1.59245E+12,-1.0740947,1.0702146,-0.056957047,-3.422022,1.767555,-5.349628,0
1.59245E+12,-0.78088546,0.6955584,0.062578395,-0.775677,1.9338509,-6.232809,0
1.59245E+12,-0.61751235,0.49289912,-0.09384775,-0.780474,2.9966528,-6.295703,0
1.59245E+12,-0.51570356,0.42103416,0.104978755,0.088316,3.2327719,-5.416786,0
1.59245E+12,-0.48288527,0.39588138,0.018740749,0.226363,2.757336,-4.657261,0
1.59245E+12,-0.27447674,0.4701419,0.050361346,1.239063,2.516953,-3.658952,0
1.59245E+12,-0.12212296,0.42055506,0.15720065,1.296627,2.6677918,-2.925011,0
1.59245E+12,-0.0969702,0.4782866,0.25733253,1.933029,2.542537,-2.629729,0
1.59245E+12,0.02591895,0.4021097,0.65857875,2.616335,2.598502,-2.217187,0
1.59245E+12,-0.0696615,0.59446836,0.7342766,3.586928,3.339372,-0.96517,0
1.59245E+12,-0.0418737,0.47660977,0.5359292,3.041136,2.5100238,-1.749213,0
1.59245E+12,-0.106073104,0.6962771,0.65450644,2.841794,3.702345,-0.147548,0
1.59245E+12,-0.41173893,0.9672082,0.77523965,3.045933,3.366555,0.314563,0
1.59245E+12,-0.46156532,1.1039913,0.7412236,2.8066158,3.118177,1.036778,0
1.59245E+12,-0.92749006,1.5447632,1.0226948,2.886566,3.132035,1.825085,0
1.59245E+12,-1.1488342,1.6506443,0.95705813,2.507603,2.934825,2.537173,0
1.59245E+12,-1.7362108,1.8389305,1.4177128,2.870043,3.937398,3.770002,0
1.59245E+12,-1.4693521,2.0849485,1.1676226,1.893587,3.749249,4.645721,0
1.59245E+12,-1.9328814,2.0267377,1.0030516,1.462923,4.159659,5.438825,0
1.59245E+12,-2.0425954,1.9864935,1.0322769,-0.30024102,4.892001,5.157934,0
1.59245E+12,-2.431864,1.8954643,1.0279648,-3.477987,5.407412,5.616314,0
1.59245E+12,-2.5882902,1.8142569,0.8284198,-3.401235,2.919368,4.866916,0
1.59245E+12,-2.2289653,1.948884,0.21660905,-4.91229,2.968404,4.463968,0
1.59245E+12,-1.9187479,1.7874273,-0.1487047,-7.5735593,4.77634,1.453051,0
1.59245E+12,-1.913957,1.3500091,-0.41005373,-7.938664,4.162857,-0.14381701,0
1.59245E+12,-1.9946854,1.1564527,-0.51928854,-6.88439,2.241925,-3.239481,0
1.59245E+12,-1.6808748,0.99403775,-0.6354703,-5.579606,1.368871,-3.889208,0
1.59245E+12,-1.5266045,0.99020493,-0.5533047,-3.689588,-0.751403,-4.31774,0
1.59245E+12,-1.1711124,0.9502001,-0.2493157,-3.114481,0.361501,-4.814496,0
1.59245E+12,-0.7315382,0.8428817,-0.122354195,-2.2424932,0.946202,-5.221175,0
1.59245E+12,-0.45054597,0.66753113,-0.15038155,-1.229793,0.952065,-5.599072,0
1.59245E+12,-0.3911376,0.43253255,-0.15565166,-1.0400449,2.715762,-5.41572,0
1.59245E+12,-0.12930945,0.41049394,-0.00329785,-0.19470699,2.440734,-4.873659,0
1.59245E+12,0.0012453,0.41720134,0.0683276,0.50032496,1.9791559,-3.972356,0
1.59245E+12,0.03166815,0.35635564,0.37375385,1.384039,2.166239,-3.658952,0
1.59245E+12,0.14713125,0.31419486,0.5409597,1.7859211,2.32454,-3.187247,0
1.59245E+12,0.0438852,0.3244955,0.79320586,2.8764389,1.5953959,-2.362696,0
1.59245E+12,0.1282068,0.4984088,0.5960563,3.1599948,1.9908819,-2.308863,0
1.59245E+12,0.16174379,0.3882158,0.57952726,3.092304,2.719493,-1.646344,0
1.59245E+12,0.054904502,0.7571228,0.8880677,2.391942,4.074379,-1.241797,0
1.59245E+12,-0.04498785,0.788983,0.38285676,2.0561519,4.063719,-0.113436,0
1.59245E+12,-0.3839511,1.1272275,0.92352116,2.660574,3.398002,0.325223,0
1.59245E+12,-0.6522471,1.2462839,1.3628558,1.6164271,3.388408,1.413076,0
1.59245E+12,-1.5455291,1.608244,0.990116,2.374353,2.822895,2.313313,0
1.59245E+12,-1.4132974,1.7292168,1.0998299,1.937826,4.919717,3.252459,0
1.59245E+12,-1.8744313,2.219336,0.41591462,-1.123726,8.69922,5.16966,0
1.59245E+12,-2.2476501,2.1041124,0.83368987,-3.1667151,10.28223,5.683472,0
1.59245E+12,-2.2680118,2.3091674,0.3792635,-5.000235,3.368154,4.234778,0
1.59245E+12,-2.8941956,2.140045,0.3251252,-2.26861,-2.466064,4.570035,0
1.59245E+12,-2.8038852,1.9611012,0.12246589,-7.09759,3.87024,3.663402,0
1.59245E+12,-2.249806,1.8132988,-0.6306793,-6.325273,0.146169,2.648037,0
1.59245E+12,-2.0018718,1.4206764,-0.6469687,-7.388075,2.215275,1.229724,0
1.59245E+12,-1.9050936,1.1209992,-1.1397231,-8.490319,5.2395167,-1.840889,0
1.59245E+12,-1.9120405,0.93391067,-1.2084739,-5.698465,1.9914149,-4.091215,0
1.59245E+12,-1.650452,0.99691236,-1.0750445,-4.121851,0.08061,-4.406218,0
1.59245E+12,-1.3989245,1.0946487,-0.66541404,-2.88156,-0.128326,-4.8448772,0
1.59245E+12,-1.0439113,1.0232629,-0.0936082,-1.8310169,1.164199,-5.380009,0
1.59245E+12,-0.6237407,0.79377395,-0.0969619,-0.582731,1.0634619,-5.989228,0
1.59245E+12,-0.5698419,0.6572305,-0.08426575,0.178926,2.18596,-5.705672,0
1.59245E+12,-0.3681408,0.46415314,0.1066556,0.620783,2.5638568,-5.279272,0
1.59245E+12,-0.03971775,0.42893928,0.17492735,1.2779721,1.3992519,-4.186622,0
1.59245E+12,-0.06894285,0.50008565,0.20008011,0.921928,1.3225,-4.61622,0
1.59245E+12,-0.03348945,0.4394795,0.36944193,1.7235601,3.368154,-3.293847,0
1.59245E+12,0.1368306,0.53577864,0.73403704,2.285342,2.306951,-2.682496,0
1.59245E+12,0.0836505,0.4040261,0.52179575,3.132812,2.140122,-2.040231,0
1.59245E+12,0.22067311,0.6742385,0.6224068,3.1818478,2.422612,-1.875001,0
1.59245E+12,-0.057923548,0.738917,0.10066684,2.987303,3.4502358,-0.92253,0
1.59245E+12,0.0654447,1.0651841,1.0775517,2.6675029,2.641675,-0.651233,0
1.59245E+12,-0.40071958,1.1950202,0.4429838,2.54438,2.9135048,0.338015,0
1.59245E+12,-0.32885462,1.5634482,1.2929072,3.988277,2.515354,0.850761,0
1.59245E+12,-0.9770769,2.292399,1.22224,2.404201,4.082374,2.23283,0
1.59245E+12,-1.2413006,2.4351707,0.77332324,4.3096757,2.569187,2.373009,0
1.59245E+12,-1.6480564,2.7683845,1.4890987,2.01138,3.382012,3.621828,0
1.59245E+12,-1.8847319,2.6476514,1.109412,0.986421,5.357843,5.465475,0
1.59245E+12,-2.1355407,2.5475194,1.22224,0.86543,3.9869668,5.955302,0
1.59245E+12,-2.3427515,2.1752589,1.2653589,-0.80872303,3.294067,6.790513,0
1.59245E+12,-2.4361758,1.8125801,0.68421066,-2.255285,4.103694,6.438733,0
1.59245E+12,-2.3422723,1.4479849,0.7337975,-3.690654,3.243432,6.048577,0
1.59245E+12,-2.0722995,1.3773177,0.2997329,-5.644099,3.532851,4.517801,0
1.59245E+12,-1.8581417,1.3823483,0.31266862,-6.750074,3.552039,2.359151,0
1.59245E+12,-1.8490388,1.2738321,-0.0835471,-7.05495,4.419763,-0.383134,0
1.59245E+12,-1.7644777,1.1063867,0.069285795,-6.269308,3.4795508,-2.79336,0
1.59245E+12,-1.4782155,1.2129865,-0.11492815,-5.066327,1.218032,-3.815121,0
1.59245E+12,-1.042474,1.0199091,-0.0490519,-3.8073812,1.6876049,-4.304415,0
1.59245E+12,-0.75597227,0.90109235,0.0261668,-3.4076312,2.088954,-5.070869,0
1.59245E+12,-0.69848025,0.817729,0.057068747,-2.118837,1.9087999,-5.416786,0
1.59245E+12,-0.5988275,0.7403543,0.07527455,-0.774078,1.7419709,-5.231302,0
1.59245E+12,-0.43784985,0.5063139,0.04892405,-0.165925,1.989816,-4.631677,0
1.59245E+12,-0.22776452,0.51996833,0.15145144,0.410781,2.765331,-4.043245,0
1.59245E+12,-0.1352982,0.35348105,0.076232746,1.2374641,2.676853,-3.804994,0
1.59245E+12,-0.08187855,0.3930068,0.31626183,1.5444721,3.1800048,-3.0678551,0
1.59245E+12,0.0529881,0.50966763,0.4468166,2.3263829,3.072872,-2.301401,0
1.59245E+12,0.0692775,0.6253703,0.62528133,3.10936,2.648071,-2.118049,0
1.59245E+12,0.118145704,0.55973357,0.58982795,3.233016,1.602325,-1.622892,0
1.59245E+12,0.16222289,0.820364,0.7699696,3.7223098,2.483907,-1.318549,0
1.59245E+12,-0.0452274,0.7729331,0.3854918,2.819941,3.091527,-0.450292,0
1.59245E+12,-0.19470659,1.4316956,1.183912,3.2260869,3.760975,0.691394,0
1.59245E+12,-0.42395598,1.2762277,0.7033747,3.378525,2.611294,1.676911,0
1.59245E+12,-0.54109585,1.873905,1.3283606,3.8091888,3.202391,2.43004,0
1.59245E+12,-0.7169256,2.2684436,1.5774926,3.5586789,2.460455,3.335607,0
1.59245E+12,-0.8355028,2.4025917,1.5664732,2.6525788,2.613426,3.804647,0
1.59245E+12,-1.0539725,2.4282236,1.1882238,1.360054,3.851052,5.120091,0
1.59245E+12,-1.20968,2.674002,1.0696466,-0.107295,3.9906979,5.743168,0
1.59245E+12,-1.6511705,2.4885902,1.4476565,-1.1647669,4.597785,6.722289,0
1.59245E+12,-1.9834265,2.4682286,1.2327802,-4.195405,5.681907,6.367844,0
1.59245E+12,-2.4189284,2.0581188,1.0629392,-5.706993,4.393113,5.420703,0
1.59245E+12,-2.364311,1.8638437,0.73834896,-7.705743,6.2346277,2.807937,0
1.59245E+12,-1.911801,1.7304144,0.114321195,-8.710448,7.512229,-0.834585,0
1.59245E+12,-2.060322,1.491104,0.03598835,-6.3583193,3.714071,-3.48093,0
1.59245E+12,-1.9886965,1.3960027,-0.20068705,-4.866452,2.0553749,-4.427538,0
1.59245E+12,-2.036367,1.2462839,-0.6685282,-4.6074142,2.403424,-5.125768,0
1.59245E+12,-1.763759,1.1229156,-0.02533645,-2.236097,0.0966,-6.174179,0
1.59245E+12,-1.464082,1.141361,-0.061029397,-2.724858,2.997719,-5.522853,0
1.59245E+12,-0.73010087,1.074766,-0.044500448,-1.6679189,2.2680418,-5.768566,0
1.59245E+12,-0.5497197,0.9890072,0.15911706,0.15334201,1.19458,-4.454188,0
1.59245E+12,-0.4332984,0.7719749,0.12078905,0.739109,2.030324,-3.660018,0
1.59245E+12,-0.28693336,0.68741375,0.2537393,1.4874411,3.186401,-3.192044,0
1.59245E+12,-0.03492675,0.42271098,0.4621478,2.924942,2.4892368,-2.96925,0
1.59245E+12,-0.12068565,0.63662916,0.40776998,2.233641,2.879926,-3.026814,0
1.59245E+12,0.46213952,0.6220166,0.6145016,2.781565,2.174767,-2.723004,0
1.59245E+12,0.22809915,0.523322,0.2685914,2.040695,3.873971,-1.355859,0
1.59245E+12,0.1306023,0.6917256,0.4401092,2.8764389,3.489145,-0.494531,0
1.59245E+12,0.015378749,0.8409653,0.745775,3.37053,2.543603,0.055524997,0
1.59245E+12,-0.087867305,1.0970442,0.7673345,4.613486,2.4172819,0.21809,0
1.59245E+12,-0.14104739,1.3567164,1.3618976,4.404017,0.791099,0.674338,0
1.59245E+12,-0.2819028,1.1277066,1.0557526,4.202543,3.592547,1.564448,0
1.59245E+12,-0.27567452,2.036799,1.5777322,2.9681149,4.059455,2.390598,0
1.59245E+12,-0.77489674,1.9838583,1.0586274,2.120645,4.538622,4.248103,0
1.59245E+12,-1.14045,2.5535083,1.7202644,1.92077,4.893067,5.426033,0
1.59245E+12,-1.3881447,2.405706,1.6479203,0.850506,4.776873,6.833153,0
1.59245E+12,-1.6952479,2.5127847,1.6342659,-1.5090849,4.272122,6.934956,0
1.59245E+12,-1.9170711,2.3532443,1.4833494,-2.9343271,4.122882,6.775589,0
1.59245E+12,-2.3724556,2.0619516,1.3012915,-5.510849,4.909057,5.757559,0
1.59245E+12,-2.160933,1.8609692,0.5936607,-7.6737633,5.604622,2.071331,0
1.59245E+12,-1.7968171,1.6321989,0.36800465,-7.5735593,4.644156,-1.201822,0
1.59245E+12,-1.8895229,1.4709818,0.059464253,-6.1755,2.351723,-2.785898,0
1.59245E+12,-1.7826836,1.2836537,-0.15157929,-5.0183573,2.25525,-3.782608,0
1.59245E+12,-1.6763233,1.1983739,-0.14367415,-3.9662151,2.2680418,-4.473376,0
1.59245E+12,-1.3380787,1.0635073,0.0889289,-2.7717621,2.944419,-5.044752,0
1.59245E+12,-1.0510979,0.83785117,5.59E-05,-2.1923912,3.5957448,-5.022366,0
1.59245E+12,-0.7610028,0.7353238,0.0855752,-0.735169,3.21998,-4.981858,0
1.59245E+12,-0.65967315,0.5724298,0.057068747,-0.038538,2.9220328,-4.143449,0
1.59245E+12,-0.56121814,0.49050364,0.05131955,0.775886,3.0334299,-3.567809,0
1.59245E+12,-0.3135234,0.3771965,0.18906079,1.635082,2.415683,-3.350878,0
1.59245E+12,-0.1673979,0.3613862,0.29134864,1.94209,2.165173,-2.925011,0
1.59245E+12,0.0462807,0.25023502,0.1842698,2.151026,2.738148,-2.680364,0
1.59245E+12,0.23839979,0.32904693,0.45280534,2.613137,1.9087999,-2.271553,0
1.59245E+12,0.1296441,0.36905178,0.17349005,3.0549939,1.848571,-2.023708,0
1.59245E+12,0.5522103,0.4711001,0.82674295,3.868885,1.398719,-1.548272,0
1.59245E+12,0.072870746,0.5297898,0.1569611,2.135036,3.516861,0.133876,0
1.59245E+12,0.28127927,0.7736517,0.717029,3.65302,2.040451,0.211694,0
1.59245E+12,-0.1333818,1.0579976,0.4937684,2.839129,3.0003839,1.490361,0
1.59245E+12,-0.0854718,1.2838932,1.1144425,3.981348,3.491277,2.194454,0
1.59245E+12,-0.6498516,1.7076572,0.760148,2.373287,4.085039,3.92244,0
1.59245E+12,-0.826879,1.9685272,1.4634669,3.5549479,3.397469,4.328586,0
1.59245E+12,-1.3203521,2.232751,1.4390328,1.9532831,4.1953697,5.936114,0
1.59245E+12,-1.2995112,2.4440339,1.61079,1.127666,3.419322,5.556085,0
1.59245E+12,-1.6655436,2.3985193,1.6016872,-0.067853,3.567496,6.277234,0
1.59245E+12,-1.8068781,2.2900033,1.7468544,-1.4925619,3.168812,6.335864,0
1.59245E+12,-2.239745,2.096926,1.3983092,-3.9038541,3.967779,6.128527,0
1.59245E+12,-2.3508961,1.9076815,1.1827142,-5.5390983,4.486921,4.400008,0
1.59245E+12,-2.2608254,1.8442007,0.719185,-7.719601,5.576373,2.006305,0
1.59245E+12,-1.7548958,1.7249048,0.1306106,-7.521858,5.094541,-2.485819,0
1.59245E+12,-1.7237543,1.3849833,-0.1491838,-5.665419,2.7472088,-3.762887,0
1.59245E+12,-1.7745388,1.1971762,-0.26967746,-4.233781,2.262179,-4.337461,0
1.59245E+12,-1.7261498,1.1133336,-0.40214857,-2.9870942,1.627909,-4.910436,0
1.59245E+12,-1.3241849,0.9753529,-0.03108565,-1.7260159,2.403424,-5.484477,0
1.59245E+12,-0.92677134,0.8335393,0.044851698,-1.234057,3.6874208,-5.271277,0
1.59245E+12,-0.81130826,0.7422707,-0.19877066,-0.570472,2.8255599,-4.727617,0
1.59245E+12,-0.5461265,0.65962595,-0.0662995,0.584539,2.387434,-4.41368,0
1.59245E+12,-0.34346715,0.54320467,0.04077935,1.3456631,2.155046,-3.859893,0
1.59245E+12,-0.17674035,0.49673194,0.114321195,1.925567,1.975958,-3.471869,0
1.59245E+12,0.08053635,0.48044258,0.1617521,2.137701,2.175833,-3.178186,0
1.59245E+12,0.09586755,0.3949232,0.2752988,2.720803,2.215808,-2.483687,0
1.59245E+12,0.2053419,0.42151326,0.328958,2.980907,1.814992,-2.112186,0
1.59245E+12,0.282477,0.4121708,0.6001286,3.488323,1.4957249,-1.843554,0
1.59245E+12,0.23001555,0.5415278,0.38621044,2.829002,2.5334759,-1.12507,0
1.59245E+12,0.01585785,0.7760472,0.46286646,3.0070238,2.624086,-0.36714402,0
1.59245E+12,-0.2028513,1.153099,0.6370193,3.126416,4.031206,0.814517,0
1.59245E+12,-0.31136745,1.1444752,0.8878282,3.4632719,3.85958,1.979122,0
1.59245E+12,-0.46036753,1.6056089,0.82051456,3.072583,4.981012,2.773825,0
1.59245E+12,-0.6488934,2.1292653,1.2490696,2.424455,4.452809,3.854749,0
1.59245E+12,-1.0793648,2.3549213,1.5097,2.419658,4.17405,5.349814,0
1.59245E+12,-1.5134294,2.8951066,1.9792179,1.7651341,4.292909,6.401423,0
1.59245E+12,-1.8181369,2.7190373,1.1348041,-1.1940819,3.63572,7.200923,0
1.59245E+12,-2.0344505,2.6308827,1.3389008,-2.324042,3.760442,7.159882,0
1.59245E+12,-2.1666822,2.3573167,1.4488542,-3.15872,2.5420039,6.298554,0
1.59245E+12,-2.3449073,2.1180062,1.1247431,-5.252344,4.139938,5.317834,0
1.59245E+12,-2.2105198,1.8252761,0.63558203,-7.951989,5.522007,3.093092,0
1.59245E+12,-1.7527397,1.704064,0.3212924,-7.799018,5.477768,-0.376738,0
1.59245E+12,-1.9036564,1.3375524,0.0194594,-5.616383,2.230732,-2.877041,0
1.59245E+12,-1.8964698,1.1703465,-0.2296726,-4.823279,1.771819,-3.656287,0
1.59245E+12,-1.6339229,1.1411215,-0.22943306,-3.759411,2.777057,-4.735612,0
1.59245E+12,-1.3893424,0.976311,0.14713955,-2.2915292,2.215808,-5.375745,0
1.59245E+12,-0.9897731,0.7707771,0.1392344,-1.586903,3.42252,-5.381608,0
1.59245E+12,-0.76842886,0.6917256,0.059703797,-0.971288,2.835154,-5.118306,0
1.59245E+12,-0.61799145,0.5645246,0.069285795,-0.084376,2.847946,-4.437665,0
1.59245E+12,-0.4558161,0.40666112,0.02928095,0.47474098,2.7584019,-3.919589,0
1.59245E+12,-0.37173405,0.39372545,0.19792415,1.314216,2.814367,-3.176054,0
1.59245E+12,-0.22896226,0.35875115,0.13540159,1.651605,3.316453,-2.898361,0
1.59245E+12,-0.16284645,0.39180905,0.32416698,2.424988,2.4919019,-2.549779,0
1.59245E+12,-0.0969702,0.33623344,0.33255124,2.840195,2.667259,-2.224649,0
1.59245E+12,0.1315605,0.5055953,0.5052668,3.261265,2.5542629,-2.204928,0
1.59245E+12,-0.014565,0.51397955,0.3763889,3.2687268,1.4381609,-1.550404,0
1.59245E+12,0.27073905,0.640941,0.8351272,4.171096,2.190224,-1.58345,0
1.59245E+12,0.038135998,0.8256341,0.8257847,2.926008,2.8266258,-0.16460401,0
1.59245E+12,-0.2411793,0.9027692,0.42262205,3.5256329,3.681558,0.265527,0
1.59245E+12,-0.12835124,1.388337,1.0629392,3.2260869,4.16339,2.208845,0
1.59245E+12,-0.75908643,1.7203534,0.8612381,2.29387,3.79562,3.634087,0
1.59245E+12,-0.9346765,2.0286543,1.2816484,3.311367,4.719842,4.485821,0
1.59245E+12,-1.1672796,2.4318168,1.3942368,0.98322296,4.458139,5.580603,0
1.59245E+12,-1.5131898,2.4744568,1.5521003,1.301424,4.138339,6.146116,0
1.59245E+12,-1.8490388,2.5422494,1.3592626,-1.931221,4.805122,6.802239,0
1.59245E+12,-2.0907447,2.2138264,1.4577177,-2.315514,3.3793468,6.472845,0
1.59245E+12,-2.1762643,2.1232765,1.3180599,-4.38462,3.8585138,5.470805,0
1.59245E+12,-2.3681438,1.9251686,0.54072016,-7.238835,5.050302,4.081807,0
1.59245E+12,-2.1283543,1.7150834,0.54910445,-7.563432,4.833904,1.17216,0
1.59245E+12,-1.724952,1.6971171,-0.0907336,-8.190773,6.571484,-1.693248,0
1.59245E+12,-1.5577462,1.4156458,-0.27590576,-6.060372,3.872905,-3.878015,0
1.59245E+12,-1.6875823,1.1605251,-0.3154315,-3.922509,1.7382399,-4.261775,0
1.59245E+12,-1.6657832,1.1394446,-0.5540233,-3.038795,2.5334759,-4.5661182,0
1.59245E+12,-1.1653632,0.8927081,-0.29554886,-1.049106,3.533917,-5.253688,0
1.59245E+12,-0.920064,0.7063382,-0.00473515,0.346288,2.961475,-5.099118,0
1.59245E+12,-0.824244,0.5614104,0.22331646,1.047716,2.4599218,-4.468579,0
1.59245E+12,-0.55043834,0.55230755,0.0726395,0.63783896,3.463561,-3.912127,0
1.59245E+12,-0.5734352,0.34006625,0.15097235,1.4165521,2.3389308,-2.996433,0
1.59245E+12,-0.2823819,0.33096334,0.12965241,1.7033061,2.491369,-2.803487,0
1.59245E+12,-0.20692365,0.32377684,0.093001254,2.163285,2.394363,-2.470895,0
1.59245E+12,-0.119967,0.31227845,0.23385665,2.743722,2.223803,-2.013581,0
1.59245E+12,0.02496075,0.3551579,0.39770883,3.698858,1.3427539,-2.184141,0
1.59245E+12,0.02591895,0.43205348,0.44945163,3.376926,1.2596059,-1.8504831,0
1.59245E+12,0.2613966,0.5132609,0.69235533,3.915789,1.440293,-1.739619,0
1.59245E+12,0.07861995,0.5592545,0.5294613,3.0635219,2.285631,-0.593136,0
1.59245E+12,0.2398371,0.7844315,0.84446967,3.332687,2.91084,-0.110771,0
1.59245E+12,-0.10343806,0.90037376,0.64588267,2.6552439,3.548841,1.336857,0
1.59245E+12,-0.32621956,1.421395,0.9170532,2.725067,3.6362529,2.246688,0
1.59245E+12,-0.618231,1.6757971,0.8629149,2.670168,2.961475,4.193204,0
1.59245E+12,-1.1656028,2.4145694,1.2672753,3.188777,2.745077,4.792296,0
1.59245E+12,-1.5912831,2.6438186,1.6119878,1.987395,3.8809,6.232462,0
1.59245E+12,-1.7582495,2.5348234,1.756197,1.440004,4.353671,6.372108,0
1.59245E+12,-1.8119087,2.346058,1.342494,-2.1422892,3.610136,6.915235,0
1.59245E+12,-1.8528717,2.1857991,1.5925843,-2.596405,3.5738919,6.129593,0
1.59245E+12,-2.3075376,2.0636287,1.5765344,-5.03488,4.6478868,6.281498,0
1.59245E+12,-2.4215634,1.9184612,0.9165742,-7.607138,4.439484,4.268357,0
1.59245E+12,-2.040679,1.7050222,0.25014606,-8.812784,4.753421,1.168429,0
1.59245E+12,-1.8511947,1.4019914,0.16342895,-7.293734,3.8707728,-1.512561,0
1.59245E+12,-2.0418766,1.2723949,-0.3317209,-6.136058,2.304286,-2.5225961,0
1.59245E+12,-1.9391096,1.1042308,-0.2023639,-4.583429,2.3266718,-3.739968,0
1.59245E+12,-1.5848153,1.2168193,0.0918035,-2.168939,3.387342,-5.200388,0
1.59245E+12,-1.6926129,1.1689093,0.0185012,-3.036663,3.324981,-4.697769,0
1.59245E+12,-1.2573504,1.1138127,0.3418937,-0.582731,3.063278,-5.363486,0
1.59245E+12,-0.7614819,1.0584767,0.33925864,0.290323,2.885789,-5.508462,0
1.59245E+12,-0.41173893,0.68837196,0.448733,1.309419,2.2803009,-4.955741,0
1.59245E+12,-0.117571495,0.64716935,0.34788245,1.346196,2.002075,-4.46698,0
1.59245E+12,0.081494555,0.45792484,0.3500384,1.7326211,2.332535,-3.929183,0
1.59245E+12,0.051311247,0.34581545,0.2997329,1.971938,2.894317,-2.844528,0
1.59245E+12,0.23887889,0.48571268,0.52275395,2.5950148,3.431581,-2.565236,0
1.59245E+12,0.12173895,0.48667082,0.37375385,2.138767,2.869799,-1.439007,0
1.59245E+12,0.28127927,0.54392326,0.92927027,3.906195,3.090994,-1.323346,0
1.59245E+12,0.04220835,0.6821436,0.4947266,1.879729,3.3377728,0.159993,0
1.59245E+12,-0.00761805,0.74203116,0.68780386,3.453678,3.2914019,0.41210198,0
1.59245E+12,-0.2737581,1.2120283,0.8528539,2.472425,3.460363,1.667317,0
1.59245E+12,-0.72291434,1.2520331,1.2782947,2.74159,4.1319427,3.415024,0
1.59245E+12,-0.7035108,1.5665623,0.97095203,2.212854,3.909149,3.377714,0
1.59245E+12,-0.99408495,2.0003874,1.2857207,1.639346,3.0382268,4.790164,0
1.59245E+12,-1.308135,2.1254325,1.4344813,1.914374,3.4587638,5.603522,0
1.59245E+12,-1.5714004,2.3841462,1.5882723,0.701799,2.657132,6.689243,0
1.59245E+12,-1.8188556,2.3038971,1.0993508,-1.0768219,3.120842,6.8646,0
1.59245E+12,-2.031576,2.0504532,1.294584,-2.848514,4.081308,6.792645,0
1.59245E+12,-2.022473,1.8116219,1.1477399,-4.843,5.539596,5.535831,0
1.59245E+12,-2.0505004,1.7435898,0.662172,-7.355029,6.098713,3.210885,0
1.59245E+12,-1.9755213,1.5085912,0.23864765,-7.964248,5.870056,0.43288898,0
1.59245E+12,-2.3290973,1.4163644,0.29613966,-6.495833,4.844564,-2.219319,0
1.59245E+12,-2.4081485,1.4678676,0.47867674,-4.564774,2.965206,-4.089616,0
1.59245E+12,-2.3597596,1.7112505,-0.19877066,-4.963458,2.748808,-5.694479,0
1.59245E+12,-1.6111658,1.512903,-0.020785,-3.2903712,2.094817,-6.49771,0
1.59245E+12,-0.67021334,1.0601536,0.07671185,-1.12799,3.344702,-7.349444,0
1.59245E+12,-0.34059256,0.6986726,-0.12307285,-0.281053,2.227534,-6.075574,0
1.59245E+12,-0.45270196,0.7446662,0.11863311,0.807866,2.11134,-4.597032,0
1.59245E+12,-0.575112,0.55470306,0.36848375,1.489573,1.8912109,-3.251207,0
1.59245E+12,-0.4438386,0.50942814,0.28368306,1.5402081,1.9706279,-2.956458,0
1.59245E+12,-0.2100378,0.446666,0.23768945,1.339267,2.030324,-2.842929,0
1.59245E+12,0.0826923,0.3407849,0.19888236,1.8605411,1.8869469,-2.800822,0
1.59245E+12,0.30044323,0.42151326,0.12653825,1.912242,2.382104,-2.640389,0
1.59245E+12,0.18689655,0.317309,0.252302,2.76291,1.7254479,-1.734289,0
1.59245E+12,0.16629526,0.580814,0.2700287,2.9841049,2.360251,-1.6506081,0
1.59245E+12,-0.0375618,0.8023977,0.27170557,3.462739,3.90222,-0.360748,0
1.59245E+12,0.2671458,0.6136323,0.6030032,3.099233,1.9493079,-1.069105,0
1.59245E+12,-0.062235452,1.2299945,0.74745184,2.154224,3.519526,0.938173,0
1.59245E+12,-0.3983241,1.4297793,0.8638732,3.2836509,3.835062,2.281866,0
1.59245E+12,-0.45222288,1.846117,1.3163831,3.968556,3.942728,2.870298,0
1.59245E+12,-1.037204,2.2564664,1.0703652,2.4974759,4.487987,4.558842,0
1.59245E+12,-1.2365096,2.5000887,1.4917338,2.396206,4.2076287,5.458013,0
1.59245E+12,-1.3998826,2.7029874,1.7911713,2.56037,3.507267,5.697863,0
1.59245E+12,-1.6367975,2.5729117,1.6469622,-0.15046799,3.946992,6.777721,0
1.59245E+12,-1.8442478,2.4021125,1.5559331,-1.146112,3.371352,6.530942,0
1.59245E+12,-1.9613879,2.1445966,1.6565441,-3.0654452,3.25729,6.090684,0
1.59245E+12,-2.1829715,1.8240786,1.4605922,-5.774151,4.863219,5.292783,0
1.59245E+12,-1.637037,1.821204,0.9690356,-8.843165,7.497838,2.689078,0
1.59245E+12,-1.6415886,1.7457457,-0.29171604,-9.894774,6.117901,-0.515851,0
1.59245E+12,-2.0500214,1.0026615,0.07479545,-5.8375783,-0.16243799,-1.717766,0
1.59245E+12,-2.2047706,0.949721,0.0065237,-4.29401,2.530278,-2.543916,0
1.59245E+12,-1.6899776,1.2599382,0.42286164,-4.356371,3.228508,-4.252181,0
1.59245E+12,-1.3431094,1.1657951,0.5150884,-2.3245752,4.23268,-5.289932,0
1.59245E+12,-0.93994665,0.91786087,0.47388572,-0.963293,3.152822,-5.484477,0
1.59245E+12,-0.862572,0.7044218,0.1282151,-0.52143604,2.423145,-4.629545,0
1.59245E+12,-0.63332266,0.53601813,0.12414275,0.563752,1.5074509,-4.581575,0
1.59245E+12,-0.26657158,0.5788976,0.1675013,0.86223197,1.6700159,-4.462183,0
1.59245E+12,-0.067266,0.39420456,0.109290645,1.35046,2.378906,-3.927584,0
1.59245E+12,0.1919271,0.49816924,0.22283736,1.743281,2.6470048,-3.455346,0
1.59245E+12,0.029991299,0.44427052,0.0985109,2.296002,2.88952,-2.502342,0
1.59245E+12,0.2901426,0.48667082,0.558926,3.1722538,1.9205259,-2.266756,0
1.59245E+12,0.20270686,0.57099247,0.1823534,2.872175,2.761067,-1.627689,0
1.59245E+12,0.25373098,0.67160344,0.5455112,3.517638,1.7664889,-1.06644,0
1.59245E+12,0.104970455,0.7633511,0.36656734,3.64236,2.000476,-0.442297,0
1.59245E+12,0.37087095,1.0948883,1.0670116,4.396555,3.4379768,-0.317575,0
