timestamp,accX,accY,accZ,geoX,geoY,geoZ,label
1.59E+12,-0.9397071,1.6609449,0.95418346,-1.1880703,5.0998406,4.4155383,0
1.59E+12,-0.90976334,1.8705511,0.7635017,-2.1986382,3.8638136,6.187763,0
1.59E+12,-0.9545592,2.001585,0.4367555,-3.5236764,3.0483236,6.9217043,0
1.59E+12,-2.0222335,2.775092,0.83680403,-5.642351,3.2673864,6.5725894,0
1.59E+12,-2.906652,2.964097,1.0751562,-7.172594,3.4619315,4.7881055,0
1.59E+12,-3.2472923,2.6946032,0.43316227,-8.215675,3.7199035,1.8384836,0
1.59E+12,-3.7244759,2.2190964,0.49209157,-8.597303,4.8424015,-1.6020315,0
1.59E+12,-3.7062702,1.6441765,-1.0240204,-3.1153984,2.1065125,-7.2326436,0
1.59E+12,-3.8610196,1.9397812,0.0362279,-5.945628,2.5238516,-5.1438165,0
1.59E+12,-3.3258648,1.6063277,-1.3874178,0.11085067,0.7601546,-6.9698744,0
1.59E+12,-1.7546562,1.32821,-2.355679,-0.22227433,2.4183176,-6.8558125,0
1.59E+12,-1.5781078,1.3825878,-1.9204165,1.1528656,4.4170675,-6.0962877,0
1.59E+12,-1.5395403,1.8097055,-1.7965691,2.3713038,4.5268655,-4.4615765,0
1.59E+12,-0.9785142,2.7973702,-1.4774885,5.5575776,2.5153236,-2.9270694,0
1.59E+12,-0.5207342,1.6065671,-0.43544608,4.2469306,2.3671496,-2.2267072,0
1.59E+12,-0.3714945,1.3885766,0.0587456,3.2299666,4.2534366,-2.1238384,0
1.59E+12,-0.57032096,1.1547759,0.20175695,2.5669148,2.9427896,-1.4805075,0
1.59E+12,-0.4572534,0.8158126,0.34117505,4.064645,3.7470865,0.21869656,0
1.59E+12,0.1612647,1.0223047,-0.0389908,3.8669016,2.3287735,1.4787085,0
1.59E+12,0.06472605,1.1636392,0.86866415,3.6169248,3.0872326,2.6092017,0
1.59E+12,0.060174603,1.2041231,1.1082141,1.5936567,3.5141656,3.4636006,0
1.59E+12,-0.3772437,1.1521407,1.2502673,-1.8564523,4.4026766,3.4929156,0
1.59E+12,-0.5789448,1.2470025,1.5190424,-3.0183923,4.5140734,5.7864146,0
1.59E+12,-0.39760545,1.8226411,0.1746878,-3.0322504,3.0611155,6.1456566,0
1.59E+12,-1.3960499,2.0437458,0.6751078,-5.228743,1.7350117,6.0529146,0
1.59E+12,-2.1125438,2.4260678,0.76038754,-6.15563,2.7413156,5.5183153,0
1.59E+12,-2.998879,2.671367,0.24367818,-6.8202815,3.3414736,2.7786956,0
1.59E+12,-3.9206672,1.987212,-0.0576757,-5.6562095,2.6101975,-3.4312873,0
1.59E+12,-3.7565753,2.2849727,0.042456202,-7.248813,3.5648005,-0.31003943,0
1.59E+12,-3.946299,1.8578551,-1.3047731,-3.3259332,2.2301686,-6.1037498,0
1.59E+12,-3.4224033,1.6398646,-1.7764469,-0.22174133,0.2223576,-7.4005384,0
1.59E+12,-2.805562,1.6889722,-2.1994922,0.41519368,1.1849556,-8.072119,0
1.59E+12,-2.1856065,1.7347263,-2.358314,0.9982957,2.0963855,-8.01722,0
1.59E+12,-1.5261256,1.7845528,-1.9496416,2.0792198,3.7737365,-6.5957084,0
1.59E+12,-0.62757343,2.2511961,-1.70027,2.1213267,3.8222396,-4.7392697,0
1.59E+12,-0.3274173,1.9874516,-0.794292,2.0984077,4.6164093,-2.5768883,0
1.59E+12,0.1205412,1.1408819,-0.30656815,2.9016387,3.0547194,0.35088056,0
1.59E+12,0.0352614,1.5421282,-0.5889976,3.0434167,3.7998536,-0.93045145,0
1.59E+12,0.17563769,0.96816635,-0.02677375,3.1191027,3.3158896,1.6812485,0
1.59E+12,0.09730485,0.9070811,0.08677295,3.0780618,2.0047095,2.5937448,0
1.59E+12,-0.0634332,0.8426421,0.27218467,2.9783907,1.4072167,3.3042336,0
1.59E+12,-0.2598642,1.0544044,0.6343843,2.8478057,2.0990505,4.0088596,0
1.59E+12,-0.6385928,1.239337,0.76374125,-1.1864713,4.6947603,4.348913,0
1.59E+12,-0.48144794,0.99882877,1.2981774,-1.3293153,1.8314847,4.6202106,0
1.59E+12,-0.8493967,1.5493147,0.6269582,-2.4208994,2.9870286,6.4873095,0
1.59E+12,-0.9078469,2.0820737,0.2867972,-3.3195374,1.9721967,6.8561454,0
1.59E+12,-1.7489071,2.5623717,0.4425047,-4.065204,3.0621815,6.8326936,0
1.59E+12,-3.0266666,2.3994775,0.052996404,-7.2013764,4.0460997,-0.46407643,0
1.59E+12,-2.7217195,2.42487,0.012751999,-6.5633755,2.9347944,1.8667326,0
1.59E+12,-2.547567,2.6016579,0.42262205,-6.043167,3.5210946,4.0200524,0
1.59E+12,-3.357006,2.092135,-0.0385117,-6.212128,5.5289054,-3.8059864,0
1.59E+12,-3.2997537,1.9527168,-0.9396988,-3.3120754,4.9207525,-6.2615175,0
1.59E+12,-2.7011182,1.9012136,-1.4130496,-0.5617953,3.5845215,-7.2075925,0
1.59E+12,-2.1053574,1.9479258,-1.6578697,0.8618477,2.9299974,-6.9357624,0
1.59E+12,-1.4394084,1.728019,-1.836574,2.2348557,2.4343076,-6.477916,0
1.59E+12,-1.1421268,1.687535,-1.9383827,2.9517407,4.5588455,-5.6965375,0
1.59E+12,-0.80172634,1.829109,-1.7915386,2.9719946,3.1831725,-3.3577332,0
1.59E+12,-0.4031151,1.8846846,-1.0709722,3.6632957,2.5062625,-1.5983005,0
1.59E+12,-0.00713895,1.5433259,-0.61798316,3.4772787,2.8116715,-0.43262944,0
1.59E+12,-0.0279798,0.98445576,-0.035158,3.0967166,2.2552195,0.11849256,0
1.59E+12,0.03550095,0.6977144,0.1732505,3.5662897,2.0308266,1.1008116,0
1.59E+12,-0.0030666,0.5003252,0.2805689,3.2774036,2.3890026,2.0383587,0
1.59E+12,0.06855885,0.6177047,0.0817424,2.8915117,1.9796586,1.4499265,0
1.59E+12,-0.01815825,0.45744577,0.2340962,2.1453116,2.8873575,2.6779587,0
1.59E+12,-0.09577245,0.50104386,0.52467036,2.3132067,2.0787966,3.3841836,0
1.59E+12,0.00388035,0.60884136,0.3859709,1.4342897,2.2354984,4.3211975,0
1.59E+12,-0.1971021,0.8855216,0.60683596,-0.6779893,3.2561936,4.5525193,0
1.59E+12,-0.6843468,1.0553625,0.8897446,-1.4551033,2.2744076,5.2059774,0
1.59E+12,-0.51666176,1.4609207,0.55197906,-2.5365603,1.5607207,5.642504,0
1.59E+12,-1.0575657,1.9474468,0.43220407,-3.1260583,1.9844557,5.7144594,0
1.59E+12,-1.5268441,2.26509,0.42645484,-4.182464,2.0468166,5.2582116,0
1.59E+12,-1.8411337,2.617468,0.19121675,-6.0202484,3.8440926,3.9502296,0
1.59E+12,-2.118772,2.6375902,0.43028766,-5.8305,3.6506135,2.6811566,0
1.59E+12,-2.153507,2.614354,-0.25027388,-6.764316,4.1692224,0.34128657,0
1.59E+12,-2.2447755,2.530272,0.12414275,-6.5900254,5.4745398,-1.5503304,0
1.59E+12,-2.3880265,2.6656175,-0.34393793,-3.1633682,6.9274974,-5.116101,0
1.59E+12,-2.2984347,2.42487,-0.89442384,-0.30915332,5.5043874,-6.5488048,0
1.59E+12,-1.8885647,2.3254566,-1.1929032,1.4939857,3.0840344,-6.6500745,0
1.59E+12,-1.4034759,2.171905,-1.5606124,2.2673688,1.7915096,-6.6367497,0
1.59E+12,-0.84268934,2.0051782,-2.005936,3.9441867,2.8468494,-5.9342556,0
1.59E+12,-0.5650509,2.013323,-2.306571,5.040035,3.8350315,-4.8341436,0
1.59E+12,-0.2574687,1.8559387,-1.585286,4.5448775,1.9274247,-3.4350183,0
1.59E+12,-0.00474345,1.824797,-0.78447044,4.252794,2.0116386,-2.0657413,0
1.59E+12,0.01346235,1.5955478,-0.5820507,4.53635,1.3491197,-1.1223315,0
1.59E+12,-0.03348945,1.2431698,-0.3911293,4.0049486,2.7439806,-1.0754274,0
1.59E+12,-0.15853456,0.93942034,-0.08378665,4.0710406,2.7514424,0.60938555,0
1.59E+12,0.15910874,0.9621776,0.04365395,3.5940056,2.7823565,1.5650545,0
1.59E+12,0.18114735,0.6823832,0.32584387,3.2267687,3.0397956,2.2957976,0
1.59E+12,-0.22560854,0.7185553,0.4976012,1.7274396,4.2720914,2.7691016,0
1.59E+12,-0.0452274,0.57003427,0.56204015,2.1932817,2.3762105,3.8878686,0
1.59E+12,-0.1146969,0.9276824,0.44801435,0.9226097,3.3745196,4.3505125,0
1.59E+12,-0.5343885,1.0853063,0.6631302,-0.17323832,3.3761184,4.6377993,0
1.59E+12,-0.6639851,1.2050812,0.69714636,-1.8878993,2.8580425,5.1404185,0
1.59E+12,-0.8208903,1.7570045,0.592463,-3.0077324,2.5451715,5.7251196,0
1.59E+12,-1.0264242,2.1263907,0.5411993,-4.013503,2.0201666,5.8221254,0
1.59E+12,-1.7534584,2.731494,0.2939837,-5.412095,3.5328205,4.823283,0
1.59E+12,-2.342033,2.766708,0.4496912,-6.8149514,4.3786917,1.3902305,0
1.59E+12,-2.704472,2.7398782,0.052756853,-6.830941,3.5115006,-0.78707445,0
1.59E+12,-3.0527778,2.8546226,-0.28740415,-6.5681725,4.0562267,-3.7228384,0
1.59E+12,-3.1344643,2.593513,-0.7566826,-3.7032974,2.3788755,-5.9225297,0
1.59E+12,-3.106437,2.657952,-1.5850465,-2.0190172,2.8271284,-7.6904907,0
1.59E+12,-2.417012,2.4727798,-1.9505999,0.5878857,1.3842976,-7.8045526,0
1.59E+12,-1.8226885,2.399238,-2.1302624,1.6938607,1.4253386,-8.189379,0
1.59E+12,-1.2082427,2.1031542,-2.1731417,2.7726526,1.7669916,-8.141942,0
1.59E+12,-0.80124724,1.8868406,-1.9539535,3.4122527,3.2679195,-6.5536017,0
1.59E+12,-0.1094268,1.9795463,-1.4813213,3.8994148,1.6385386,-4.0298467,0
1.59E+12,0.0731103,1.575186,-0.8572936,3.5076597,2.7573056,-2.6424472,0
1.59E+12,0.11886434,1.0424268,-0.38274506,3.3040538,3.9027226,-1.5071574,0
1.59E+12,0.1329978,0.75448775,-0.0940873,2.7102916,2.9108095,-0.40597942,0
1.59E+12,0.1670139,0.7250231,0.109530196,2.4587157,3.9032555,1.0725626,0
1.59E+12,0.060414147,0.7571228,0.0242504,3.1254988,3.2721834,1.8256916,0
1.59E+12,-0.05217435,0.6292031,0.089168444,2.8712578,3.0451255,2.5670946,0
1.59E+12,-0.1956648,0.8134171,0.29326504,2.7763836,3.1458626,3.3180916,0
1.59E+12,-0.34586266,0.99451685,0.3006911,2.3228006,2.1869955,3.7578166,0
1.59E+12,-0.5252856,1.1945411,0.6197717,1.1741858,3.9970636,4.1357136,0
1.59E+12,-0.77753174,1.2256826,0.61138743,-1.5819573,4.6872983,4.3782287,0
1.59E+12,-0.81753665,1.584768,0.7740419,-2.8670204,4.2193246,6.0950212,0
1.59E+12,-1.0460674,2.3664198,0.0879707,-3.6787794,4.7421975,5.5897374,0
1.59E+12,-2.0212753,2.6720855,0.26643544,-5.8177085,4.6547856,4.7561255,0
1.59E+12,-2.1597352,2.8934298,0.065453,-5.8273025,3.5818565,2.9956267,0
1.59E+12,-2.6603947,2.661785,0.012751999,-7.1443453,4.0860744,0.69679755,0
1.59E+12,-3.1828532,2.5719535,-0.7197919,-5.1930323,3.9853375,-5.3229046,0
1.59E+12,-3.0178034,2.816055,-0.1065439,-7.4918613,4.7970967,-2.5928783,0
1.59E+12,-2.9533644,2.4926627,-1.3641814,-3.7112923,3.8643465,-7.3547006,0
1.59E+12,-2.3178382,2.3479743,-1.6832621,-0.6273543,3.1021566,-6.8877926,0
1.59E+12,-1.2813054,2.174061,-2.1197221,0.7115417,1.6923716,-6.3340054,0
1.59E+12,-0.79382116,1.658789,-1.9431738,1.9203857,2.0702686,-5.6283135,0
1.59E+12,-0.43114248,1.512424,-2.1281064,2.7918408,3.9107175,-4.812824,0
1.59E+12,-0.15230624,1.438403,-1.6844597,4.1461935,1.9348867,-2.7048082,0
1.59E+12,0.25636604,1.4340911,-0.98689014,4.5816545,1.1769607,-1.3403285,0
1.59E+12,0.22618274,1.2779045,-0.6364285,4.998461,2.0724006,-1.0466454,0
1.59E+12,0.02112795,0.9396599,-0.3278881,4.4228206,2.5243845,-0.36653742,0
1.59E+12,0.13970521,0.8392884,0.0898871,4.4670596,1.9236937,0.64029956,0
1.59E+12,0.20462325,0.8634831,0.06808805,4.0955586,2.7045386,1.4040885,0
1.59E+12,0.0113064,0.63279635,0.26547724,3.2720737,2.8436515,1.7590666,0
1.59E+12,-0.21842206,0.77341217,0.48801917,2.6916368,3.0946946,2.7392538,0
1.59E+12,0.01921155,0.72622085,0.3811799,1.9422387,2.9896936,3.3303506,0
1.59E+12,-0.27256036,0.9001342,0.608992,1.7983288,1.7659256,4.1847496,0
1.59E+12,-0.42826787,1.2910798,0.46358508,-0.5271503,4.1249833,3.9747477,0
1.59E+12,-0.61391914,1.0867436,0.7788329,-0.6955783,1.7014327,5.1084385,0
1.59E+12,-0.6302085,1.9472072,0.4338809,-3.1223273,3.1309385,5.1254945,0
1.59E+12,-0.89323443,2.0528488,0.5045482,-3.5657833,2.7962146,5.3152423,0
1.59E+12,-1.8650888,2.8471966,0.2202023,-5.2740483,4.4303927,4.2860193,0
1.59E+12,-1.9788749,2.7978492,-0.0869008,-5.4675274,3.9229765,2.0346277,0
1.59E+12,-2.8395782,2.6009393,0.31434545,-6.7222095,4.0690184,0.047603562,0
1.59E+12,-2.5113947,2.6517236,-0.20931084,-5.703113,3.6511464,-2.5006692,0
1.59E+12,-3.1399739,2.3745644,-0.3408238,-4.459091,3.8099806,-5.0516076,0
1.59E+12,-2.6469798,2.4299004,-1.1509819,-2.8872743,2.7402496,-7.0146465,0
1.59E+12,-2.6199107,2.3580356,-1.2029642,-0.43014434,1.1567067,-7.0002556,0
1.59E+12,-1.4772574,2.272516,-1.9848554,0.21691768,0.7244436,-6.8142385,0
1.59E+12,-1.2896897,1.8082682,-1.7043425,1.3916497,0.6642146,-6.3862395,0
1.59E+12,-0.43066335,1.6096814,-1.4499403,2.1005397,1.8282866,-4.529268,0
1.59E+12,-0.6659015,1.4585252,-1.8451979,1.7743437,1.1961486,-5.5281096,0
1.59E+12,-0.14320335,1.3636634,-1.1009159,3.0514116,2.0798626,-3.2340772,0
1.59E+12,-0.0643914,1.0865041,-0.8053112,3.2971246,2.9753025,-2.3476985,0
1.59E+12,0.1559946,0.7623929,-0.2550649,3.5401728,2.7983465,-1.4559895,0
1.59E+12,0.22187085,0.64118063,-0.0811516,3.4223797,3.4464746,-0.18478444,0
1.59E+12,0.2661876,0.681425,0.04413305,3.5646906,3.2348735,0.85083455,0
1.59E+12,0.18905249,0.49721104,0.14378585,3.1633418,2.7439806,1.6194205,0
1.59E+12,0.0261585,0.62728673,0.35075706,3.1377578,3.1810405,2.2963307,0
1.59E+12,-0.1070313,0.599978,0.3351863,1.9955387,3.1831725,2.8463867,0
1.59E+12,-0.116134204,0.7762868,0.534971,2.1090677,3.1837056,3.7871315,0
1.59E+12,-0.3417903,0.9621776,0.381659,-0.13912633,3.4411445,4.4747014,0
1.59E+12,-0.31807485,1.1372887,0.6662444,0.034631677,2.1592796,4.7945013,0
1.59E+12,-1.2353117,2.1227975,0.2820062,-2.3068373,1.9892527,5.5540266,0
1.59E+12,-1.0209146,1.6075252,0.47364622,-1.6709683,1.6044266,5.6355753,0
1.59E+12,-1.6207478,2.3824697,0.31913644,-3.8584003,3.2103555,4.6191444,0
1.59E+12,-2.2148318,2.4756544,0.2949419,-5.258058,3.2839096,2.1502886,0
1.59E+12,-2.2038124,2.4969745,0.49400797,-4.842851,3.7140405,3.2509336,0
1.59E+12,-2.3686228,2.5273974,0.1837907,-5.991999,3.2391374,-0.28392243,0
1.59E+12,-2.8036456,2.3149164,0.01730345,-5.0635133,3.5040386,-2.7794282,0
1.59E+12,-2.8149047,2.403071,-0.6764334,-3.4144113,3.6122375,-5.1081057,0
1.59E+12,-2.4725876,2.204963,-1.3469338,-0.8011123,2.0105724,-5.9880886,0
1.59E+12,-1.6415886,1.9119934,-1.7546479,-0.24785833,-0.34422138,-5.9779615,0
1.59E+12,-1.4525837,1.3078482,-1.4449098,0.06394667,-0.5387664,-6.6724606,0
1.59E+12,-1.5690049,1.2139447,-1.6985931,1.8537607,0.4344916,-5.8308535,0
1.59E+12,-0.7605237,1.4161248,-2.0516899,1.4252287,1.7488697,-6.0120735,0
1.59E+12,-0.84963626,1.320784,-1.5927122,2.2060738,1.9913846,-4.9577994,0
1.59E+12,-0.1731471,1.4539738,-1.046059,3.8674347,1.2952867,-3.1711833,0
1.59E+12,0.28654936,1.1624415,-0.8659174,4.0507865,1.6182847,-2.5827513,0
1.59E+12,-0.01001355,0.86228526,-0.298663,3.2182407,3.0712426,-2.0262992,0
1.59E+12,0.053467203,0.79377395,-0.0246178,3.4522276,3.8227725,-0.69912946,0
1.59E+12,0.081255004,0.8222804,-0.0313252,3.5940056,3.3713214,0.32263157,0
1.59E+12,0.0113064,0.799044,0.43723458,3.1484177,2.9363935,2.8463867,0
1.59E+12,0.115989745,0.6723221,0.19936146,2.9597356,4.1249833,1.5623895,0
1.59E+12,0.0228048,0.8725859,0.58743244,1.0334737,3.8185086,3.2050958,0
1.59E+12,-0.3159189,0.8428817,1.1429489,0.5026057,2.1901934,4.1170583,0
1.59E+12,-0.27783045,1.1919061,0.55964464,-1.2706853,3.8147776,4.7779784,0
1.59E+12,-0.5387004,1.4051056,0.6557042,-2.2338164,2.5393085,5.3957253,0
1.59E+12,-1.1301494,1.8918711,0.4204661,-2.7263083,2.5920756,5.8679633,0
1.59E+12,-2.1547046,2.142201,0.19121675,-3.9852543,3.9656165,3.1219478,0
1.59E+12,-1.5242091,2.4200788,0.17780195,-4.138758,4.0999327,4.2524405,0
1.59E+12,-2.3034654,2.4069037,0.16007525,-5.964816,3.8963265,1.2655085,0
1.59E+12,-2.3645506,2.457209,0.43986964,-5.872607,3.1096184,-0.44435543,0
1.59E+12,-2.650094,2.576026,0.05563145,-5.7750683,2.4033935,-2.9787703,0
1.59E+12,-2.6917758,2.5975854,-0.6651745,-4.4718833,3.1394665,-5.1864567,0
1.59E+12,-1.8523926,2.4569697,-1.824836,-0.22120833,1.4674456,-6.8792644,0
1.59E+12,-2.7559752,2.6215405,-1.2247633,-2.5637434,2.9582465,-7.0786066,0
1.59E+12,-1.3375996,1.9881703,-1.8018392,0.8090807,0.3209626,-6.6964455,0
1.59E+12,-0.83598197,1.5100285,-2.0054567,1.2408108,0.30976963,-6.4043617,0
1.59E+12,-0.52408785,1.1770539,-1.8095049,2.2172668,0.36200362,-5.3202395,0
1.59E+12,-0.25818735,1.1665137,-1.6490062,2.4768376,0.43715662,-4.1220555,0
1.59E+12,0.14257981,0.9243287,-1.0961249,3.5231166,-0.1992454,-3.2111583,0
1.59E+12,-0.0667869,0.95762616,-0.8371714,3.2816677,2.2077825,-2.9968925,0
1.59E+12,-0.04402965,0.60692495,-0.40310678,3.4282427,2.5403745,-1.9959184,0
1.59E+12,0.12700905,0.73460513,-0.18343945,3.8162668,2.6592336,-0.8046635,0
1.59E+12,0.1684512,0.7096919,-0.09480595,3.5193858,3.7422895,-0.11389544,0
1.59E+12,0.0117855,0.65579313,0.161273,3.0578077,3.9970636,0.92918557,0
1.59E+12,0.10880325,0.6533977,0.23529395,3.5049946,3.7838635,2.0660746,0
1.59E+12,-0.0691824,0.9233705,0.27218467,2.0898798,4.2187915,2.7754977,0
1.59E+12,-0.1099059,0.8680345,0.59533757,1.8228467,3.4656625,4.0840125,0
1.59E+12,-0.22512946,1.2891634,0.49999672,-0.14285733,3.8376966,4.6468606,0
1.59E+12,-0.5192968,1.438403,0.6408521,-0.8751993,3.4613986,5.3386946,0
1.59E+12,-1.123921,2.3702524,0.33830044,-4.2490892,4.3888187,4.8797812,0
1.59E+12,-0.81825525,1.9381043,0.31578276,-1.6571103,3.2423356,6.0140057,0
1.59E+12,-1.8485597,2.4715822,0.57593405,-4.5065284,4.1974716,3.8340356,0
1.59E+12,-2.1563816,2.796412,0.1258196,-5.764941,3.8947275,2.1694767,0
1.59E+12,-2.230163,2.615312,0.14330675,-6.2798195,4.1073947,0.08597956,0
1.59E+12,-2.7583709,2.6598685,0.05994335,-6.356038,5.0380125,-3.1312084,0
1.59E+12,-2.8067598,2.5487173,-0.6191809,-4.4574924,3.9741445,-5.7423754,0
1.59E+12,-2.7059093,2.715923,-1.0726491,-1.9721133,2.6629646,-6.7188315,0
1.59E+12,-1.9084473,2.4459503,-1.755127,-0.7819243,1.5324717,-7.7096786,0
1.59E+12,-1.792505,1.8873198,-1.66841,0.6097387,-0.2360224,-7.3840156,0
1.59E+12,-0.95887107,1.812101,-2.1491866,1.5121077,0.51177657,-6.9981236,0
1.59E+12,-1.0010319,1.5011652,-2.0365982,1.8111207,1.5612537,-6.6431456,0
1.59E+12,0.03502185,0.9822998,-0.37747496,3.8445158,2.1507516,-2.1941943,0
1.59E+12,-0.5446891,1.6403437,-1.549114,3.4026587,2.0004456,-4.8208184,0
1.59E+12,-0.15853456,1.7318518,-1.3284885,3.3179116,1.1145997,-3.7606814,0
1.59E+12,0.19216666,1.0694959,-0.44598627,3.8509116,3.4853835,-1.3515215,0
1.59E+12,0.13132095,0.73125136,-0.0581548,3.7048697,3.0275366,-0.33029342,0
1.59E+12,0.16605571,0.7489781,0.1627103,3.7475097,3.1010904,0.75542754,0
1.59E+12,0.1689303,0.6153092,0.1665431,3.3925316,3.0147445,1.3289355,0
1.59E+12,-0.056007154,0.7269395,0.4223825,3.7539058,2.2712095,2.3773468,0
1.59E+12,0.0419688,0.87282544,0.25876984,3.0844576,3.7502844,2.8543816,0
1.59E+12,-0.3168771,0.99834967,0.55245817,2.1692967,3.2892396,3.4790576,0
1.59E+12,-0.33148965,1.2252035,0.6025241,1.7929987,3.2871075,4.3697004,0
1.59E+12,-0.9179081,1.6175864,0.6509132,-1.5435812,3.6271615,5.4436955,0
1.59E+12,-0.5631345,1.5270364,0.56395656,-0.6486743,4.7032886,4.3574414,0
1.59E+12,-0.742797,2.1848407,0.23744991,-2.6154442,4.2459745,4.7033587,0
1.59E+12,-1.8674843,2.4219954,0.2896718,-2.6154442,4.2459745,4.7033587,0
1.59E+12,-1.8219697,2.4212766,0.38956416,-4.0668035,4.9585958,3.9230466,0
1.59E+12,-2.156142,2.6316016,0.28416213,-4.845516,4.4261284,2.4173217,0
1.59E+12,-2.507562,2.3994775,-0.5681568,-6.1369753,3.7604115,-1.6084274,0
1.59E+12,-2.208364,2.5386562,0.04317485,-6.407739,4.9186206,0.72824454,0
1.59E+12,-2.7679527,2.3522863,-1.0130011,-5.243667,4.3173966,-4.7344728,0
1.59E+12,-2.2316003,2.2701206,-1.4202361,-2.8926044,3.7534826,-6.6308866,0
1.59E+12,-1.6933314,2.0296123,-1.6288841,-0.7872543,1.2878246,-6.9800014,0
1.59E+12,-1.3301736,1.5840495,-1.6808665,-0.061308324,0.1941086,-6.9704075,0
1.59E+12,-0.8999418,1.3018595,-1.815254,0.7477857,-0.34155637,-6.8451524,0
1.59E+12,-0.30513915,1.0330844,-1.7254229,1.5744687,-0.25947437,-5.6181865,0
1.59E+12,-0.10104255,0.9554702,-1.2487183,2.7140226,2.0452175,-4.6625175,0
1.59E+12,-0.53606534,1.0845877,-1.2959096,1.4422847,0.9834816,-5.436434,0
1.59E+12,0.0630492,0.91474664,-0.7406328,3.4799438,1.0543706,-3.2218184,0
1.59E+12,0.04604115,0.49625286,-0.2737498,2.8691256,1.3443227,-2.5779543,0
1.59E+12,0.14808944,0.6517208,-0.1659523,2.9608016,2.7471786,-1.4394665,0
1.59E+12,0.1521618,0.5559008,-0.01479625,3.5017967,2.6341825,-0.35267943,0
1.59E+12,0.023044351,0.5491934,0.21684861,3.1910577,3.2407365,0.49212557,0
1.59E+12,0.03166815,0.5774603,0.32153195,2.9624007,2.6229894,1.2569805,0
1.59E+12,-0.1094268,0.72765815,0.31482455,3.1500168,3.2535286,1.9621396,0
1.59E+12,-0.014565,1.0342821,0.563717,2.7225506,2.7322545,2.9364636,0
1.59E+12,-0.36838037,1.038594,0.793685,1.6517537,4.4357224,3.7823346,0
1.59E+12,-0.47593832,1.3969609,0.77428144,-0.24092934,4.1079273,4.1032004,0
1.59E+12,-0.4864785,1.7229884,0.33638406,-1.1246433,3.6548774,5.358948,0
1.59E+12,-1.0934982,2.3170724,0.1933727,-1.0782723,2.8969514,5.8732934,0
1.59E+12,-1.5397799,2.3611495,0.5687476,-3.2758312,3.9666824,5.4964623,0
1.59E+12,-1.7855581,2.774613,-0.13025935,-3.3424563,3.9379005,4.4997525,0
1.59E+12,-2.3616757,2.6926868,0.3696815,-5.383313,4.1617603,2.6736946,0
1.59E+12,-2.5449317,2.5805774,0.022334,-5.9717455,4.5753684,0.60139054,0
1.59E+12,-2.9325235,2.5202107,-0.1616404,-6.273423,5.8113956,-2.6706963,0
1.59E+12,-2.6235042,2.6881354,-0.99383706,-5.0230055,4.9175544,-6.0664396,0
1.59E+12,-1.8526322,2.5719535,-1.5275545,-2.7055213,2.9545155,-7.0594187,0
1.59E+12,-1.4703103,1.9999082,-1.7340466,-1.1795423,1.2430526,-7.5241947,0
1.59E+12,-0.7198002,1.586924,-2.2490792,0.11937867,-0.053203393,-6.7636037,0
1.59E+12,-0.8441266,1.0989606,-1.995156,1.4630717,1.0170606,-6.2663145,0
1.59E+12,-0.6615895,1.294673,-1.4961735,1.4625387,1.9386177,-6.0786986,0
1.59E+12,-0.41676944,1.3634238,-1.3692119,2.7667897,3.2871075,-4.9183574,0
1.59E+12,-0.0495393,1.1902292,-0.74230963,3.4351716,2.3890026,-3.3875813,0
1.59E+12,-0.1448802,0.9080393,-0.46179658,3.6942098,1.4066837,-2.4212523,0
1.59E+12,-0.0442692,0.7326887,-0.2723125,3.5993357,2.2141786,-1.6643925,0
1.59E+12,0.10544954,0.7897016,-0.1276243,4.0587816,2.5414405,-0.62877345,0
1.59E+12,-0.0222306,0.71472245,0.11360256,3.9223337,3.2593915,0.62644154,0
1.59E+12,-0.072057,0.7173575,0.37854487,3.8615718,3.2593915,1.4435306,0
1.59E+12,-0.0136068,0.5501516,0.56491476,2.7342768,3.3516006,1.9536115,0
1.59E+12,0.02927265,1.0103271,0.36896285,2.7246828,2.5046635,3.1864407,0
1.59E+12,-0.3250218,1.0251793,0.58886975,2.0285847,2.8457835,3.7754056,0
1.59E+12,-0.36550575,1.361747,0.48825875,1.5227677,2.5942075,4.8131566,0
1.59E+12,-0.77944815,1.5948292,0.6636094,0.08046967,2.1566145,4.9815845,0
1.59E+12,-1.1114644,1.8856428,0.47196937,-0.8805293,3.7438886,5.3749385,0
1.59E+12,-1.4065901,2.281619,0.31578276,-1.3223863,2.1235685,5.2795315,0
1.59E+12,-1.6837494,2.1783729,0.31530365,-2.2050343,3.0099475,4.7955675,0
1.59E+12,-2.0881097,2.5674021,0.49113336,-2.3473454,4.0690184,3.8606856,0
1.59E+12,-1.7913072,2.297669,0.3744725,-4.4287105,3.7785335,2.6353188,0
1.59E+12,-2.345626,2.3872607,0.20918301,-4.0907884,2.1193044,1.4216776,0
1.59E+12,-2.8232887,2.4342122,-0.31902474,-5.4632635,4.2918124,-3.2644584,0
1.59E+12,-2.3640714,2.3211446,-0.14032045,-6.3965464,3.4960434,-0.6842055,0
1.59E+12,-2.4342597,2.2270017,-1.0374353,-4.953182,3.4763224,-6.1746387,0
1.59E+12,-2.4263544,2.2629342,-0.8364528,-3.3344612,1.5159487,-8.221358,0
1.59E+12,-1.1782988,1.941458,-2.0387542,-1.2573603,-0.5712794,-7.1073885,0
1.59E+12,-1.0846349,1.2807791,-2.25387,0.39760467,0.4019786,-7.1649528,0
1.59E+12,-0.6364368,1.3725268,-1.6212184,1.3628677,3.3526666,-6.7428164,0
1.59E+12,0.00435945,1.3344383,-1.0106056,2.6074226,3.8883314,-5.0569377,0
1.59E+12,0.32847062,1.1432774,-0.5176117,3.0919197,2.2253716,-3.0480604,0
1.59E+12,0.33302206,0.6802272,-0.33794922,3.3280387,1.6555947,-1.7699264,0
1.59E+12,0.16821165,0.5913542,-0.2718334,3.2006516,2.4081905,-1.1090064,0
1.59E+12,0.25349146,0.72310674,-0.15660985,3.5023296,2.7850215,0.018288562,0
1.59E+12,0.0965862,0.59303105,0.0074819,3.8008096,2.9854295,0.87002254,0
1.59E+12,0.068079755,0.6464507,0.26164445,3.6073308,2.3698146,1.4675156,0
1.59E+12,-0.072296545,0.80479324,0.25733253,3.6584988,3.1677155,2.2760766,0
1.59E+12,-0.20356996,0.89366627,0.68277335,2.6143517,3.6308925,2.7675028,0
1.59E+12,-0.22321305,1.1631601,0.5057459,1.7887347,3.1250756,3.6160386,0
1.59E+12,-0.49989328,1.4388821,0.59869134,1.4257617,2.4801455,4.3473144,0
1.59E+12,-0.8697585,1.7488598,0.48298866,-1.0191092,3.1964974,5.0039706,0
1.59E+12,-1.3859887,2.2217317,0.43507868,-1.1305063,2.5675576,5.576412,0
1.59E+12,-1.8382591,2.1743007,0.27553836,-2.6538203,3.7406905,4.6031547,0
1.59E+12,-1.9944458,2.3204262,0.45232624,-4.0097723,4.8706503,3.5328906,0
1.59E+12,-2.6678207,2.4282236,0.16558489,-6.4477143,4.3643007,0.18938157,0
1.59E+12,-2.1072738,2.6023765,0.2561348,-4.581148,4.1063285,2.3427017,0
1.59E+12,-2.8168209,2.5197318,-0.39184794,-6.3251243,3.8622146,-2.4148564,0
1.59E+12,-2.9569576,2.6608267,-1.1212777,-5.6418185,3.8877985,-5.6299124,0
1.59E+12,-1.4698312,1.8976204,-1.9168231,-1.6054093,-1.0168674,-6.7193646,0
1.59E+12,-2.0531354,2.397082,-1.6633793,-3.2102723,2.4630895,-6.7790604,0
1.59E+12,-1.4597701,1.4307374,-1.9561094,-1.0521553,-1.1836964,-6.7342887,0
1.59E+12,-1.0235496,1.2096328,-2.075645,-0.26118332,0.27565762,-6.9378943,0
1.59E+12,-0.62038696,1.2333481,-1.8581336,1.7562217,1.1801586,-5.9854236,0
1.59E+12,-0.38035786,0.9993078,-1.0716908,1.6762717,2.2637475,-5.5174494,0
1.59E+12,0.0371778,1.1138127,-0.78542864,1.9502337,2.5334456,-4.0399737,0
1.59E+12,0.143538,0.8907917,-0.5796552,3.1745348,2.2386966,-2.4606943,0
1.59E+12,0.02352345,0.45361295,-0.25722083,2.9234917,2.6816196,-2.1371634,0
1.59E+12,0.2134866,0.6823832,-0.21649735,3.4586236,3.6969845,-0.015823437,0
1.59E+12,0.0362196,0.4931387,-0.0044956,3.7960126,3.2801785,0.8785505,0
1.59E+12,-0.0083367,0.585605,0.39722973,3.1622758,3.7955894,1.5890396,0
1.59E+12,0.0462807,0.62081885,0.1550447,3.3589528,2.2301686,2.3474987,0
1.59E+12,-0.15613905,0.8366534,0.42286164,2.5855696,3.3569305,3.0505257,0
1.59E+12,-0.3120861,1.2153819,0.28991133,2.7204187,2.1742036,4.0818806,0
1.59E+12,-0.66853654,1.0881809,0.6839711,1.0862406,3.8728745,3.9656866,0
1.59E+12,-0.6920124,1.8051541,0.44921213,0.8053497,2.4518964,5.1702666,0
1.59E+12,-1.1016428,1.653998,0.60563827,-1.6613743,4.0668864,4.9293504,0
1.59E+12,-1.4418039,2.3889375,0.099708654,-1.9561234,3.0211406,5.4783406,0
1.59E+12,-1.9827077,2.0923743,0.25086468,-3.3866954,3.6836596,4.2375164,0
1.59E+12,-2.3523335,2.3182702,0.35602716,-3.9303553,4.8647876,2.8298635,0
1.59E+12,-2.1422482,2.2351463,0.1579193,-5.348668,4.3237925,1.2756356,0
1.59E+12,-2.8321521,2.315156,0.1392344,-5.845424,3.4230225,-0.6799415,0
1.59E+12,-2.8069994,2.3558795,-0.674996,-6.0666194,4.2294517,-3.6492844,0
1.59E+12,-2.7389672,2.4555323,-1.326093,-3.2166684,3.5573385,-7.2379737,0
1.59E+12,-1.6976433,2.0672219,-1.7944132,-1.5990133,1.3491197,-7.5700326,0
1.59E+12,-1.0920609,1.8020399,-2.5650456,0.7115417,-0.22642839,-7.1974654,0
1.59E+12,-0.9377907,1.3665379,-2.0284536,1.7796737,0.33215562,-6.7987814,0
1.59E+12,-0.41676944,1.1078241,-1.6236141,1.8644207,-0.7642254,-6.128268,0
1.59E+12,-0.11493645,1.2496376,-1.5043181,2.7646577,0.29857662,-4.8341436,0
1.59E+12,-0.03205215,0.79664856,-0.7545267,2.2311246,1.2755656,-4.2569046,0
1.59E+12,0.14545439,0.9106744,-0.6505619,2.1858196,1.6070917,-3.0251412,0
1.59E+12,0.1267695,0.6589073,-0.4835956,3.2145097,2.9710386,-1.8813235,0
1.59E+12,0.2034255,0.40426564,-0.047854148,2.7966378,3.2689855,-1.1676364,0
1.59E+12,0.2939754,0.51733327,-0.14990245,3.2960587,2.5009325,0.16059956,0
1.59E+12,0.1171875,0.37024957,0.03598835,3.2448907,3.1874366,0.8145906,0
1.59E+12,0.0376569,0.5053557,0.23265891,2.8179576,3.3030975,1.4771096,0
1.59E+12,0.064486496,0.6277658,0.20031965,2.5903666,3.2673864,2.4855456,0
1.59E+12,-0.2148288,0.7700585,0.40178117,2.3611767,3.7524166,3.2674568,0
1.59E+12,-0.7844787,1.2465235,0.5950981,0.7131407,3.6708674,4.5162754,0
1.59E+12,-0.17290756,0.91019523,0.4832282,1.2301507,2.5787506,3.8857367,0
1.59E+12,-0.65967315,1.3854625,0.4578359,-1.1816742,3.1112175,4.8819137,0
1.59E+12,-1.6511705,2.6095629,-0.0188686,-3.7235513,2.7530415,5.5060563,0
1.59E+12,-1.1756638,1.8892361,0.5282636,-3.3254004,4.0157185,5.3925276,0
1.59E+12,-2.1427274,2.235386,-0.1075021,-4.8780293,4.3014064,4.3984823,0
1.59E+12,-2.4560587,2.1156108,-0.23134944,-4.7884855,4.3189955,2.8874276,0
1.59E+12,-2.8688033,1.5232036,-0.04162585,-4.553965,5.3412895,-1.0754274,0
1.59E+12,-2.549004,2.5223668,0.190019,-5.351333,5.4553514,-3.7489552,0
1.59E+12,-2.077809,2.6998734,-0.68625486,-4.280003,3.6868575,-5.0532064,0
1.59E+12,-1.9376724,2.2775466,-1.8758602,-2.1709223,1.1087366,-6.8328934,0
1.59E+12,-1.7189633,2.5892012,-1.4537731,-2.8275783,0.6189096,-5.7221217,0
1.59E+12,-1.2281253,2.1376495,-2.3393893,0.32724866,1.3906937,-7.0706115,0
1.59E+12,-0.6450606,1.5078725,-2.005217,1.2743897,-0.2349564,-6.7172327,0
1.59E+12,-0.33675975,1.3804319,-1.9915628,2.2321906,0.5730716,-5.8654985,0
1.59E+12,-0.1372146,1.081234,-1.4425142,3.1782658,1.8011036,-4.9641957,0
1.59E+12,0.10209586,0.91163254,-0.9044849,2.9048367,1.3672416,-3.8475604,0
1.59E+12,0.10017945,0.8790538,-0.7078144,2.8371458,1.7829816,-2.6035383,0
1.59E+12,0.0697566,0.78179646,-0.5051551,3.2859316,2.1422236,-1.3803035,0
1.59E+12,-2.9835477,0.41528496,-1.9436529,-3.6517928,0.057847153,4.942669,1
1.59E+12,-5.6471043,-0.44326225,-4.328852,-2.1647227,2.134948,3.4017658,1
1.59E+12,-5.1859703,0.48762903,-4.482643,0.50454116,2.610384,0.4190979,1
1.59E+12,-4.9255795,1.1406424,-3.376162,5.050498,1.7565182,-2.307197,1
1.59E+12,-3.5900884,1.1610041,-2.3425035,5.109128,3.2244,-3.409974,1
1.59E+12,-2.4960635,1.5186522,-0.65774846,7.768265,2.078983,-5.2200418,1
1.59E+12,-1.5012124,2.134296,0.3797426,8.674365,1.0870702,-7.447982,1
1.59E+12,-1.2298021,2.0176349,-0.097920105,6.501324,-2.5554519,-8.664822,1
1.59E+12,-1.3387973,1.630043,-0.0998365,4.128941,-2.551188,-7.84027,1
1.59E+12,-1.295918,1.4853548,0.17564599,3.0107071,-2.231921,-6.0046177,1
1.59E+12,-0.94114435,1.335636,0.05754785,2.1307242,-2.696697,-5.497735,1
1.59E+12,-0.35544464,1.610879,0.1109675,1.678207,-2.2521749,-4.7648597,1
1.59E+12,1.6838446,1.9309177,0.059224702,1.3344221,-2.327328,-5.3154488,1
1.59E+12,2.7201378,1.4906249,-1.1557729,-0.23313087,-3.133224,-2.854588,1
1.59E+12,3.3487172,1.2299945,-1.42886,-0.96014285,-0.6984799,-0.047277097,1
1.59E+12,2.3763835,1.3114415,-1.1929032,-0.33653286,-0.80028284,1.7750499,1
1.59E+12,1.1755193,1.4149271,-0.21553914,1.244878,1.5267951,4.426725,1
1.59E+12,-0.47881287,1.6000992,0.95059025,2.5763123,2.069389,6.495831,1
1.59E+12,-2.5178626,1.565604,1.2950631,2.6002972,1.4265912,9.194942,1
1.59E+12,-2.6409912,1.346895,0.22187915,-2.0980978,3.829355,10.15754,1
1.59E+12,-1.9771982,1.0036198,-0.20739445,-3.3373227,1.4500432,8.133206,1
1.59E+12,-1.4480321,0.614351,-0.34489614,-3.7973018,1.0513592,6.0182633,1
1.59E+12,-1.1112249,0.42606467,-0.2656051,-3.7855759,0.9266371,4.710814,1
1.59E+12,-0.98258656,0.23562245,-0.6886504,-4.004639,0.10208616,3.605372,1
1.59E+12,-1.138294,0.42726246,-1.062588,-4.026492,-0.49167582,2.958843,1
1.59E+12,-2.8206537,0.7417916,-1.6078037,-3.1619658,-1.4190958,3.4630609,1
1.59E+12,-6.046674,0.40474477,-3.880175,-3.4162068,-1.9750148,4.0962653,1
1.59E+12,-4.561703,0.1261481,-3.0853481,1.603054,0.010410156,-0.85956913,1
1.59E+12,-3.773344,0.1333346,-2.6179862,1.5993232,1.9094892,-1.2614511,1
1.59E+12,-2.9782777,0.14315614,-1.2479997,4.280313,1.7447922,-2.8481922,1
1.59E+12,-2.0298991,1.2613755,-0.1075021,5.214662,4.067073,-4.895445,1
1.59E+12,-1.3340064,1.6796299,0.4741253,6.190585,3.139653,-6.575461,1
1.59E+12,-1.2844195,1.4920622,0.5517395,5.578168,0.20495515,-6.744955,1
1.59E+12,-1.2805867,1.3677357,0.43819278,3.5959413,0.16551316,-6.8435597,1
1.59E+12,-1.4564164,1.333001,0.4702925,2.1722982,-0.56043285,-6.480054,1
1.59E+12,-1.226688,1.2565845,0.1018646,0.58982116,-0.51832587,-6.439013,1
1.59E+12,-0.81562024,1.165316,0.1957682,1.0673891,-0.95218784,-6.074974,1
1.59E+12,0.6727039,1.2975476,0.32344836,1.6504911,-1.7090478,-6.2098227,1
1.59E+12,3.8627915,1.6460928,-0.41915664,1.062059,-2.114661,-6.034999,1
1.59E+12,4.1516886,1.430977,-1.0726491,-0.41914788,-2.182885,-2.3652942,1
1.59E+12,3.7640967,1.9031299,-1.1737392,-0.90044683,0.55087215,-0.1522781,1
1.59E+12,2.2455893,1.7090944,-0.5415667,0.94959617,-1.2176218,2.125764,1
1.59E+12,0.5213083,1.6767553,0.47484392,3.1626122,-0.70967287,4.902694,1
1.59E+12,-2.403597,1.4302583,1.1616337,2.5123522,1.1755482,8.958291,1
1.59E+12,-2.065113,1.1811264,0.5160466,0.74652314,-0.15481985,7.456297,1
1.59E+12,-1.6736883,1.0223047,0.42381978,0.76357913,-1.0198787,6.520349,1
1.59E+12,-1.5543925,0.9295988,0.44801435,-0.4740469,0.7976511,6.912637,1
1.59E+12,-1.5081593,0.8986968,-0.113969944,-2.5948539,1.1382382,6.799641,1
1.59E+12,-1.3852701,0.5618895,-0.37028843,-3.1726258,1.0604202,5.978288,1
1.59E+12,-1.420484,0.2799392,-0.5645635,-2.714779,0.061045155,4.904826,1
1.59E+12,-2.271605,0.0188297,-0.8513048,-2.5660717,0.18630014,4.627666,1
1.59E+12,-5.703159,0.4342094,-3.2784257,-4.974699,0.39843416,5.7123213,1
1.59E+12,-5.290893,0.40977532,-3.189792,0.023242133,-0.79815084,1.6652519,1
1.59E+12,-3.8119118,-0.01207225,-2.5808558,1.0737851,-0.07327084,-1.0301291,1
1.59E+12,-3.0683484,-0.093279704,-1.8229196,2.6599932,1.8007572,-1.9031831,1
1.59E+12,-2.1585374,0.69987035,-0.6139108,4.071377,2.834777,-4.386963,1
1.59E+12,-1.2781913,1.5735092,0.031916,5.387354,2.282056,-7.045567,1
1.59E+12,-1.1780593,1.5859659,0.3854918,5.182682,0.60737014,-7.9729867,1
1.59E+12,-1.3740113,1.3150347,0.35985994,3.5330472,1.0641512,-7.0658207,1
1.59E+12,-1.5083988,1.3543209,0.37758666,2.7474053,0.9740741,-7.1217856,1
1.59E+12,-1.2082427,1.3552792,0.39722973,2.3401933,-0.9148779,-7.746462,1
1.59E+12,-0.9339579,1.1181247,0.39675063,1.249675,-1.4233598,-6.724701,1
1.59E+12,0.43698674,1.315993,0.3955529,1.0018301,-1.5550108,-6.133604,1
1.59E+12,3.310389,1.9088793,-0.6972742,-0.48683888,-1.0364017,-5.868703,1
1.59E+12,4.4743624,2.1077056,-1.7043425,-0.75600386,-2.930151,-4.448258,1
1.59E+12,3.4526818,1.8537827,-1.0544432,0.42992112,-0.31578583,0.5667389,1
1.59E+12,2.2144477,1.7088549,-0.70613754,0.28068113,1.4916172,2.9716349,1
1.59E+12,0.8080497,1.6127955,0.32632297,2.6360083,-0.64784485,4.737464,1
1.59E+12,-1.3138841,1.8037167,0.83680403,2.1957502,0.7603411,7.562897,1
1.59E+12,-1.9786354,1.5152986,0.7764374,1.4586111,0.64041615,8.697654,1
1.59E+12,-1.8531113,1.2527517,0.33686316,-0.66645986,1.2576302,8.051125,1
1.59E+12,-1.7352526,1.1320186,0.10545786,-2.4818578,1.3743572,7.427515,1
1.59E+12,-1.5330725,0.9765506,-0.19877066,-3.65126,0.83656013,6.351388,1
1.59E+12,-1.2971157,0.5099072,-0.66972595,-3.9609327,0.42881516,5.222494,1
1.59E+12,-1.2645369,0.24855813,-0.69320184,-2.3928468,-0.9463249,3.8819988,1
1.59E+12,-2.0655923,-0.42649373,-1.2247633,-1.8044149,-0.61906284,4.19487,1
1.59E+12,-5.1380606,-0.1536463,-3.7122505,-3.796769,-0.9649799,5.6099854,1
1.59E+12,-5.792032,0.096923,-3.7750125,-0.7240238,-0.43197984,2.875695,1
1.59E+12,-3.8114326,-0.044411503,-3.347416,0.5722321,0.60310614,-1.5231541,1
1.59E+12,-3.0870333,-0.086572304,-1.6360706,3.0176363,1.0119172,-2.484153,1
1.59E+12,-2.3736534,0.95762616,-0.408856,3.989828,3.263842,-4.445593,1
1.59E+12,-1.5256464,1.8274323,0.20702705,5.141108,2.1637301,-7.329123,1
1.59E+12,-1.145241,1.7340076,0.38645,4.873542,0.31955016,-8.264539,1
1.59E+12,-1.2681301,1.4896667,0.4784372,3.9050813,-1.0417318,-7.852529,1
1.59E+12,-1.1208069,1.3648611,0.54862535,2.267172,-1.5171678,-7.9580626,1
1.59E+12,-0.9401862,1.2165797,0.48155135,0.7491881,-1.1067578,-7.00879,1
1.59E+12,-0.60409755,1.2520331,0.43100628,-0.10840887,-0.80774486,-5.85218,1
1.59E+12,0.63485503,1.3739641,0.5812041,0.77743715,-1.0705138,-5.423115,1
1.59E+12,3.835722,1.8815705,-1.2427295,-1.1264389,-1.2336118,-4.112468,1
1.59E+12,3.69846,1.7716172,-1.8588521,-1.3012629,-2.004863,-1.4357421,1
1.59E+12,3.0523937,1.7850319,-1.8832862,-0.07163187,-0.69954586,1.2686999,1
1.59E+12,1.6680342,1.7869482,-0.43209234,2.828421,-1.0902348,2.9801629,1
1.59E+12,-0.3446649,1.87654,0.91154355,4.037798,1.1041262,5.955902,1
1.59E+12,-2.4304268,1.5270364,1.4105263,3.6119313,2.589597,9.616013,1
1.59E+12,-2.4107835,1.1945411,0.7285274,0.37075812,1.9729162,8.327752,1
1.59E+12,-1.9556386,0.9046856,0.5996495,0.98104316,-1.5416858,6.413749,1
1.59E+12,-1.4834856,0.82251996,0.4013021,0.053090133,-0.53111786,5.80986,1
1.59E+12,-1.3141237,0.57003427,-0.087619446,-2.2670588,1.5315922,6.5731163,1
1.59E+12,-1.369939,0.25095364,-0.43017596,-2.7472918,1.3301182,5.825317,1
1.59E+12,-1.5510387,0.16279925,-0.5303079,-1.9451269,-0.55456984,4.2700233,1
1.59E+12,-3.1131444,-0.0463279,-1.6940418,-2.0522597,-0.29020184,4.938938,1
1.59E+12,-6.1951947,-0.32492453,-2.9313176,-2.2025657,0.29130116,6.423343,1
1.59E+12,-5.810238,-0.23724926,-3.043427,-1.1120479,0.72942716,2.13216,1
1.59E+12,-4.01529,-0.2537782,-2.4153268,1.7075222,-0.6739619,-2.2149882,1
1.59E+12,-3.4873214,-0.1838296,-1.4331719,2.3114111,1.9483982,-2.277882,1
1.59E+12,-2.6740491,0.530748,-0.471139,3.5218542,2.373199,-4.2830276,1
1.59E+12,-1.6777607,1.7823969,0.2681123,4.309628,2.3204322,-7.3643007,1
1.59E+12,-1.1816527,1.821204,0.25876984,3.7872882,0.88612914,-8.544896,1
1.59E+12,-1.2832218,1.6103998,0.2733824,2.8188272,-0.001848844,-7.660649,1
1.59E+12,-1.2784308,1.342583,0.4722089,2.4137473,-1.0529248,-7.507678,1
1.59E+12,-1.1227233,1.2704785,0.35363165,1.266198,-1.1339408,-7.001328,1
1.59E+12,-0.70997864,1.2311922,0.53712696,0.98317516,-0.70007885,-5.959846,1
1.59E+12,1.003762,1.5109866,0.2403245,0.7928941,-0.86584187,-5.5867457,1
1.59E+12,3.6527057,1.8279114,-0.24524336,0.15702513,-1.0017568,-5.69761,1
1.59E+12,4.001251,1.9721205,-1.4020302,-1.0544839,-1.6285648,-2.6877592,1
1.59E+12,2.9721444,1.6324384,-1.3553181,-1.1509569,-0.8717049,0.8049899,1
1.59E+12,1.744211,1.503321,-0.7435073,1.2928481,-0.7901559,2.852243,1
1.59E+12,0.73211235,1.6652569,0.2844017,2.715958,0.19216315,4.6756363,1
1.59E+12,-1.6106867,1.8504289,1.1165984,3.3070552,1.1147861,8.189172,1
1.59E+12,-2.43929,1.4235508,0.72948563,1.4335601,2.0027642,9.655455,1
1.59E+12,-2.1144605,1.222808,0.4180706,0.07387713,0.6787921,8.709912,1
1.59E+12,-1.662669,1.1645973,-0.05599885,-3.0718887,2.389189,7.805945,1
1.59E+12,-1.5131898,0.7743704,-0.5185699,-4.805738,2.5805361,7.0815983,1
1.59E+12,-1.1806943,0.27562732,-0.7291344,-3.8617947,0.37977916,4.776373,1
1.59E+12,-1.3519727,0.18962885,-0.84316015,-2.0085537,-1.6717378,2.917269,1
1.59E+12,-3.0168452,-0.0765112,-1.8011205,-2.1785808,-1.1845758,4.143169,1
1.59E+12,-5.9455833,-0.14909485,-3.6664963,-3.455649,0.056248154,4.9959693,1
1.59E+12,-5.352458,0.33671254,-3.6775157,-0.5635908,-0.009843843,1.2926849,1
1.59E+12,-3.8672478,0.0423056,-2.646253,1.9596311,-0.25235882,-2.5225291,1
1.59E+12,-3.167043,0.0863828,-1.4128101,3.5586312,1.3151942,-3.1781192,1
1.59E+12,-2.0018718,1.1756166,0.0774305,4.152393,2.0518,-4.737677,1
1.59E+12,-1.269807,1.8427633,0.34069595,4.288308,1.7794372,-8.2187,1
1.59E+12,-1.1634468,1.5711137,0.3538712,3.4888082,-0.27954182,-8.599795,1
1.59E+12,-1.2077636,1.4328934,0.5141302,2.7911112,-1.4366848,-8.009765,1
1.59E+12,-1.1049966,1.2913193,0.48227,1.216096,-0.8919589,-7.516206,1
1.59E+12,-1.0688245,1.0970442,0.5682684,0.53758717,-0.70647484,-6.150127,1
1.59E+12,-0.4864785,1.1780121,0.25829074,-0.40369087,0.07383716,-5.6085987,1
1.59E+12,0.94962376,1.3830669,0.08054465,0.7534522,-1.9515628,-5.570223,1
1.59E+12,3.3530288,1.8216829,-0.8232775,0.06854713,-1.7159768,-5.378343,1
1.59E+12,3.8057785,1.7016684,-1.5989404,-0.37064487,-1.7117128,-2.268821,1
1.59E+12,3.1324034,1.718437,-1.6796688,-0.72242486,-0.62439287,0.7863349,1
1.59E+12,1.988073,1.73808,-1.0489336,1.353077,-1.6696059,2.259014,1
1.59E+12,-0.56529045,1.9884098,0.7912895,3.7355871,-0.31845084,5.128686,1
1.59E+12,-2.6472194,1.6765158,1.3451291,3.5820832,1.6259332,9.756724,1
1.59E+12,-2.4721084,1.3112019,0.8643522,1.9345801,0.13246715,8.530825,1
1.59E+12,-2.0974522,1.1475893,0.5428761,0.77956915,0.15005615,7.422718,1
1.59E+12,-1.9680952,0.79760677,0.20247559,-0.46605188,0.77952915,7.1327662,1
1.59E+12,-1.3567636,0.49792972,0.01011695,-0.69524187,-0.18786585,5.4431562,1
1.59E+12,-0.93803024,0.14555165,-0.03252295,-0.8823249,0.40429717,4.994903,1
1.59E+12,-1.4358151,-0.23054186,-0.42754093,-1.9381979,1.7613152,5.59133,1
1.59E+12,-3.0017533,-0.66101325,-1.2324289,-2.5703359,0.8850631,5.5289693,1
1.59E+12,-5.5984755,-0.45907253,-2.4574876,-2.5495489,0.92184013,4.674037,1
1.59E+12,-5.988942,-0.334267,-2.3980792,-0.34772587,-0.24969386,1.6364698,1
1.59E+12,-3.9134808,-0.13184725,-2.268243,1.3067061,-0.32804483,-2.5726311,1
1.59E+12,-3.4767811,-0.15771864,-1.3150737,2.1866891,1.5891562,-2.907355,1
1.59E+12,-2.7691505,0.85030776,-0.08570305,3.6412463,2.92592,-5.1273,1
1.59E+12,-1.8174183,1.9227731,0.3222506,3.8203342,3.1135361,-7.710218,1
1.59E+12,-1.2106382,1.9977522,0.45855457,3.728125,1.4724292,-8.413245,1
1.59E+12,-1.2583086,1.6980753,0.38094035,2.8305533,0.76567113,-7.215594,1
1.59E+12,-1.171831,1.675318,0.5210771,2.2122731,-0.12017484,-6.792392,1
1.59E+12,-1.2535176,1.4005541,0.58647424,1.3978491,-0.92074084,-6.0243387,1
1.59E+12,-0.5482824,1.359112,0.47891632,0.33824512,0.36272317,-5.49507,1
1.59E+12,0.58742416,1.5193709,0.38573134,1.286985,-1.0667828,-5.466288,1
1.59E+12,2.989392,1.8166525,0.2575721,0.8973622,-2.0187209,-5.767966,1
1.59E+12,3.684566,1.5047584,-0.806509,-1.4025329,-1.7634138,-2.970782,1
1.59E+12,3.6668391,1.7910206,-1.8303457,-1.102454,-2.6114168,-0.2983201,1
1.59E+12,1.7861325,1.7974885,-0.58085287,1.8493001,-0.6590379,3.67253,1
1.59E+12,-0.1491921,1.8521059,0.9692752,2.8683963,0.47625217,6.2922254,1
1.59E+12,-2.297237,1.8370142,1.748771,3.1647441,0.5727251,9.549388,1
1.59E+12,-3.0614014,1.4194785,0.5095787,-1.277278,3.351787,10.562621,1
1.59E+12,-2.1348221,1.0124831,0.27218467,-1.2378359,-1.5827268,6.518217,1
1.59E+12,-1.3953311,0.88408434,0.4305272,0.53545517,-3.7509708,4.085605,1
1.59E+12,-1.2547153,0.743708,0.0673694,-0.96493983,-0.62279385,5.430897,1
1.59E+12,-1.7007574,0.4318139,-0.30896366,-2.5468838,1.6888272,6.5997663,1
1.59E+12,-1.6542847,-0.25449687,-0.79141736,-2.7382307,0.51569414,5.145742,1
1.59E+12,-3.1701572,-0.9463173,-2.5183332,-2.0224118,-0.40746182,3.9470248,1
1.59E+12,-5.8603034,-1.0713623,-3.180689,-1.0059808,0.40376416,4.5018783,1
1.59E+12,-5.4657645,-0.29306442,-2.9852164,0.28814313,0.093558155,0.2266849,1
1.59E+12,-3.5345128,-0.13040994,-2.4555712,1.3637371,0.034928154,-3.4387562,1
1.59E+12,-2.8261633,-0.22048075,-1.4348487,2.629079,2.161065,-3.190911,1
1.59E+12,-2.4031181,0.41887823,-0.1712224,4.0004883,2.698862,-4.5740457,1
1.59E+12,-1.5778682,1.5107472,0.2829644,3.9727721,2.9866822,-6.8313007,1
1.59E+12,-1.1878809,1.6456137,0.2743406,3.6881502,1.4361852,-8.067328,1
1.59E+12,-1.0561284,1.4448708,0.33925864,3.340634,-0.26088685,-7.8626556,1
1.59E+12,-1.1107458,1.2175379,0.47340664,2.354051,-1.1040928,-7.316331,1
1.59E+12,-0.91599166,1.1768143,0.50047576,0.82380813,-1.2442718,-6.240204,1
1.59E+12,-0.1937484,1.2546681,0.3553085,0.7662442,-1.4292228,-5.654437,1
1.59E+12,1.5437077,1.4649931,0.137318,0.75185317,-1.5299598,-5.369282,1
1.59E+12,3.7238522,1.9979918,-1.2331475,-0.72722185,-2.061894,-5.122503,1
1.59E+12,3.4675338,1.7181975,-1.7699791,-0.9361578,-1.9174508,-0.52218014,1
1.59E+12,2.8571603,1.6916072,-1.6827829,-1.1701449,0.48478016,1.6711149,1
1.59E+12,1.6723461,1.5277551,-0.4898239,2.1952171,-1.3402117,3.151789,1
1.59E+12,-0.069421954,1.7198741,0.74936825,3.6252563,0.39097217,5.683539,1
1.59E+12,-2.0926614,1.3066505,1.3983092,3.9226701,2.0891101,9.309538,1
1.59E+12,-2.0552914,1.0639864,0.81308854,0.8739101,2.1637301,8.059652,1
1.59E+12,-1.7244728,0.8699509,0.410405,-0.35998487,0.10688316,6.4681153,1
1.59E+12,-1.3974872,0.7899412,0.1464209,-1.8710399,0.87546915,6.094482,1
1.59E+12,-1.2535176,0.59015644,-0.1970938,-3.1918137,1.2997372,6.104076,1
1.59E+12,-1.0808021,0.4701419,-0.6637372,-3.9657297,1.7703762,5.3504143,1
1.59E+12,-1.6221851,-0.19436981,-1.1746973,-3.5201418,0.57006013,4.5045433,1
1.59E+12,-3.7453167,-0.32013354,-3.8449612,-3.4023488,-1.1088898,4.209261,1
1.59E+12,-5.9851093,-0.8658284,-3.688535,-0.31361386,-1.2074949,4.014183,1
1.59E+12,-4.621112,-0.9173317,-2.9926422,1.1153591,-0.25182584,-0.1128361,1
1.59E+12,-3.5527184,-0.38145834,-2.183682,2.3012843,-0.27367884,-2.650449,1
1.59E+12,-2.9198275,-0.23772836,-1.3816686,2.1595063,2.116826,-2.911086,1
1.59E+12,-2.005944,1.5164963,0.2925464,4.116682,3.854406,-6.015811,1
1.59E+12,-1.2307603,1.8480335,0.27410105,4.106022,1.4575052,-8.44256,1
1.59E+12,-1.2024934,1.6283661,0.5076623,4.268587,-0.89782184,-8.158471,1
1.59E+12,-0.944019,1.4482245,0.5282636,2.8694623,-1.7527539,-7.97885,1
1.59E+12,-0.97755605,1.1423192,0.5847974,1.7187151,-1.7356977,-6.60904,1
1.59E+12,-0.5880477,1.1130941,0.47771853,0.3323821,-0.69581485,-5.503065,1
1.59E+12,0.2331297,1.2127469,0.1761251,0.4187281,-1.2357438,-5.3959317,1
1.59E+12,2.2012725,1.4860735,-0.052405603,0.6159381,-1.8987958,-4.843744,1
1.59E+12,4.223793,1.9304386,-1.8147749,-1.3785479,-1.4238929,-3.707921,1
1.59E+12,2.9146523,1.6508839,-1.6365497,-1.0406259,-2.1066658,-0.0893841,1
1.59E+12,1.6728252,1.6475302,-0.98185956,0.48002312,-0.30885684,3.197094,1
1.59E+12,0.45327616,1.7591604,0.25876984,3.3667512,-1.0507928,4.766779,1
1.59E+12,-2.0222335,1.792937,1.4663414,4.241404,1.0049882,8.064982,1
1.59E+12,-2.5657725,1.3291682,1.1992432,2.9211633,0.7933871,8.642221,1
1.59E+12,-2.1388946,1.1047099,0.7711673,1.3013761,0.27691016,7.149289,1
1.59E+12,-1.5872108,0.80694926,0.49831986,0.05095813,0.84881914,6.676518,1
1.59E+12,-1.3761672,0.61483014,0.00293045,-1.5080669,1.4692312,6.689843,1
1.59E+12,-1.3723344,0.24640219,-0.46011966,-3.0233858,2.03581,6.395094,1
1.59E+12,-1.7525003,-0.2566528,-1.3601091,-2.1162198,0.39683518,4.864318,1
1.59E+12,-4.469476,-0.52806294,-2.8443608,-2.3805878,0.45066816,5.774682,1
1.59E+12,-5.467681,-0.7091628,-3.0309703,-0.73521686,0.9117131,3.0190718,1
1.59E+12,-4.6057806,-0.5371658,-2.9646149,1.199573,-0.62865686,-0.2183701,1
1.59E+12,-3.555114,-0.41547447,-2.377478,1.5817341,1.2133912,-1.8237661,1
1.59E+12,-2.8527534,-0.0362668,-1.1272664,3.340634,1.3535702,-2.961188,1
1.59E+12,-1.9486917,0.83761156,-0.095524594,3.9551833,2.7287102,-5.047883,1
1.59E+12,-1.1579372,1.4041474,0.27649656,4.283511,2.301244,-6.8504887,1
1.59E+12,-0.8316701,1.402231,0.24272001,4.113484,0.28277317,-7.675573,1
1.59E+12,-0.93922794,1.0716519,0.410405,2.9877882,-1.9542278,-7.1686897,1
1.59E+12,-0.9095238,0.99954736,0.35506895,1.5476221,-1.8337698,-6.9410987,1
1.59E+12,-1.0544516,0.8958222,0.45280534,0.64685214,-1.3775218,-5.583015,1
1.59E+12,-0.42970514,1.1154896,0.2039129,0.08773513,-0.5844179,-5.281337,1
1.59E+12,1.1503667,1.1502243,0.0616202,0.8323361,-1.6802658,-5.378343,1
1.59E+12,3.3542266,1.7019079,-0.91837883,-0.36638087,-1.5853918,-4.747271,1
1.59E+12,3.857521,1.680109,-1.5428857,-1.2239779,-1.3759228,-2.3892791,1
1.59E+12,3.2667909,1.788146,-1.4204757,-0.34346187,-0.64624584,0.32848787,1
1.59E+12,2.259004,1.7409546,-0.9401779,0.95012915,-0.81787187,2.551631,1
1.59E+12,-0.15494129,1.9359484,0.86818504,2.6941051,-0.57748884,4.847795,1
1.59E+12,-2.3532917,1.8521059,1.3480036,3.1316981,1.5577092,9.823883,1
1.59E+12,-2.7873561,1.3684543,1.3710005,1.9932101,-0.102052845,8.779202,1
1.59E+12,-2.2138734,1.0867436,0.7864985,0.66071016,0.21401615,7.364088,1
1.59E+12,-1.7189633,0.7319701,0.0122729,-2.373659,2.421169,7.3235803,1
1.59E+12,-1.3347251,0.50918853,-0.2828527,-2.818714,1.3386462,5.862627,1
1.59E+12,-1.1394918,0.13596965,-0.3470521,-2.6135087,0.49650615,4.2135253,1
1.59E+12,-1.5939181,-0.22958365,-1.2872858,-2.6678748,-0.10898184,3.744485,1
1.59E+12,-2.8661683,-0.7266499,-2.4160454,-2.1439357,-1.1259458,3.8638768,1
1.59E+12,-4.843414,-1.1599958,-3.056602,-0.7991769,0.09888816,3.4923759,1
1.59E+12,-5.039366,-0.44038764,-2.9258077,0.33398113,0.7081071,1.7260139,1
1.59E+12,-3.1859674,-0.1996399,-2.3089666,1.6190441,1.3493062,-2.5044072,1
1.59E+12,-2.6627903,-0.14334565,-0.91095275,3.7792933,1.2794832,-3.56028,1
1.59E+12,-2.0567288,0.9525956,-0.0586339,3.5159912,4.717333,-4.273967,1
1.59E+12,-1.1900369,1.6417811,0.3404564,4.793592,2.7617562,-6.919779,1
1.59E+12,-0.91551256,1.6185446,0.33901912,4.673667,0.6494771,-7.405342,1
1.59E+12,-0.91503346,1.4333725,0.3438101,3.8677711,-0.63345385,-7.0631557,1
1.59E+12,-0.7037504,1.1873546,0.32105285,2.8081672,-1.2997038,-6.8862,1
1.59E+12,-0.824244,0.99834967,0.44178605,2.2213342,-2.0075278,-6.2247467,1
1.59E+12,-0.4131762,1.103033,0.29374415,1.0636581,-1.1632558,-5.480146,1
1.59E+12,2.247745,1.4110943,0.0999482,1.2262231,-2.1589,-5.2173767,1
1.59E+12,4.748408,1.7680238,-1.618344,-1.1999929,-1.8854707,-4.085818,1
1.59E+12,3.4121978,1.4029496,-1.0613902,-0.4687169,-0.8274659,1.7190849,1
1.59E+12,1.9571711,1.3203049,-0.6311584,-0.4937679,1.4681652,3.356994,1
1.59E+12,0.59700614,1.4163644,0.4611896,2.6402721,-1.5891228,4.6804333,1
1.59E+12,-1.7702268,1.4237905,1.1956499,2.0811553,1.2794832,7.990896,1
1.59E+12,-2.379163,1.1190828,1.1417512,1.4980531,-0.66010386,8.156658,1
1.59E+12,-2.068946,1.0213464,0.56108195,0.12344613,-0.47248784,6.841215,1
1.59E+12,-1.6466192,0.76933986,0.1866653,-1.5539049,1.0726792,6.493699,1
1.59E+12,-1.2142314,0.5772208,-0.0749233,-1.3071259,-0.7528459,5.177722,1
1.59E+12,-1.0132489,0.39707917,-0.30896366,-1.8731719,0.10208616,5.036477,1
1.59E+12,-1.0606798,0.076082155,-0.50539464,-2.3976438,1.5150692,5.1574683,1
1.59E+12,-2.0574474,-0.43032655,-1.3224996,-2.539955,0.63668513,5.0620613,1
1.59E+12,-4.1228476,-0.7371901,-3.0688193,-2.4509437,-0.15002285,4.4134,1
1.59E+12,-5.928336,-0.72185886,-4.009532,-1.6812919,0.7017111,3.919842,1
1.59E+12,-4.746396,-0.7122769,-2.9936004,1.6185111,-0.26141983,-0.8798231,1
1.59E+12,-3.3043053,-0.18215275,-1.6973956,3.0981193,1.5438511,-3.166393,1
1.59E+12,-2.592123,0.6946002,-0.2828527,4.453538,3.05917,-4.546863,1
1.59E+12,-1.574275,1.8269532,0.46238738,5.209332,2.706857,-7.23798,1
1.59E+12,-0.9591106,1.8180897,0.2949419,4.522828,0.12393916,-8.840712,1
1.59E+12,-0.8855688,1.5495541,0.3361445,3.5218542,-1.0790418,-8.061465,1
1.59E+12,-0.9337184,1.3229399,0.16151255,2.3764372,-1.7543528,-7.208665,1
1.59E+12,-0.7873533,1.1526198,0.4266944,2.0353172,-2.0149899,-6.327083,1
1.59E+12,-0.3331665,1.244128,0.085096106,0.5828922,-1.2575969,-5.490806,1
1.59E+12,0.8351189,1.0941696,0.2681123,1.4959211,-1.8934658,-4.98339,1
1.59E+12,3.0064,1.6734016,-0.44550714,0.25829512,-2.167961,-4.1241937,1
1.59E+12,3.9571738,1.4887085,-2.0212672,-1.6109359,-1.9131868,-2.1169162,1
1.59E+12,2.9359725,1.2151425,-1.2003292,-0.22353688,0.21135116,2.4418328,1
1.59E+12,2.1061711,1.3770783,-0.99814904,-0.6760538,0.76353914,2.8676999,1
1.59E+12,-0.24285614,1.6307617,0.4947266,2.487301,0.21668115,6.081157,1
1.59E+12,-2.1429667,1.5184127,1.2485905,1.677674,2.4782,9.118724,1
1.59E+12,-2.2119572,1.4257069,0.51676524,-0.6243529,1.8833722,8.666739,1
1.59E+12,-2.0667899,1.131779,0.1818743,-2.5724678,1.5347902,7.922139,1
1.59E+12,-1.468394,0.93055695,0.01921985,-2.7904649,0.61483216,6.3337994,1
1.59E+12,-1.1864436,0.54296505,-0.47952324,-3.7365398,0.52955216,5.649427,1
1.59E+12,-1.2000979,0.13836515,-0.8120187,-3.5777059,0.39257115,4.795028,1
1.59E+12,-1.4810901,0.049252547,-1.2645285,-2.7446268,-0.31738484,3.2328048,1
1.59E+12,-3.2082455,-0.48542303,-3.2810605,-3.1838188,-0.6595709,3.7977848,1
1.59E+12,-5.169921,-0.789412,-4.044986,-2.2105608,1.4303222,3.429482,1
1.59E+12,-4.0945807,-0.37523004,-3.3210654,1.2219591,-0.98683286,-1.6372161,1
1.59E+12,-2.719324,-0.15915595,-2.5374973,1.8674221,1.3684942,-2.5326562,1
1.59E+12,-2.3880265,-0.0621382,-1.029051,4.234475,0.90052015,-3.4542131,1
1.59E+12,-1.906531,1.0558417,-0.13457125,3.8006132,3.7227552,-4.7014327,1
1.59E+12,-1.0606798,1.7213116,0.21589041,4.854887,2.056597,-7.143106,1
1.59E+12,-0.82328576,1.4415171,0.2499065,4.5771937,-0.39040583,-7.426662,1
1.59E+12,-0.73920375,1.3267727,0.28464124,3.6034033,-1.2304138,-6.890997,1
1.59E+12,-0.7068645,1.0733287,0.21756725,2.6429372,-2.426466,-6.656477,1
1.59E+12,-0.7883115,0.8881566,0.31386635,1.5923941,-1.6701388,-5.4375057,1
1.59E+12,-0.46036753,1.1303418,0.02257355,0.60634416,-0.5636309,-5.0537457,1
1.59E+12,0.92590827,1.1617228,0.63869613,1.56148,-0.8301309,-5.131031,1
1.59E+12,3.0078373,1.3488114,-0.47569045,-0.33440086,-0.7608409,-4.8138957,1
1.59E+12,4.7309203,1.9948776,-1.5076718,-1.843324,-0.88076586,-3.655687,1
1.59E+12,3.5461063,2.0044596,-1.1320574,-0.44473186,-1.3215568,0.2613299,1
1.59E+12,1.9897499,1.8164129,-0.6888899,-0.24858788,0.8930581,3.374583,1
1.59E+12,-0.52121323,1.6688502,0.51796293,1.390387,1.2965392,6.8955812,1
1.59E+12,-2.2426195,1.6650174,0.6626512,0.33078313,2.6882021,9.699694,1
1.59E+12,-2.2888527,1.2704785,0.30308658,-1.3913399,1.0556232,8.932174,1
1.59E+12,-1.8873669,1.1451938,0.17636465,-1.2740799,-0.6318549,6.939287,1
1.59E+12,-1.6135613,0.9672082,0.11360256,-1.8816999,-0.26621684,6.562989,1
1.59E+12,-1.2757957,0.79664856,-0.3523222,-3.330927,0.5578011,6.192554,1
1.59E+12,-1.3414325,0.33024472,-0.75811994,-3.7818449,0.35579416,5.710722,1
1.59E+12,-1.4202445,-0.1670611,-1.1413999,-3.0063298,-0.019437844,4.604214,1
1.59E+12,-3.944862,-0.39870596,-2.7832756,-2.3155618,-1.4302888,4.8883033,1
1.59E+12,-5.0654764,-0.6976644,-3.7062619,-2.1972358,0.6622691,3.7061088,1
1.59E+12,-4.650576,-0.92284137,-3.3809528,1.5710741,-0.93033487,-0.1250951,1
1.59E+12,-0.93874896,0.015476001,-0.4926985,-0.55399686,2.395585,-1.5295501,2
1.59E+12,-1.1172136,0.105786346,-0.5662404,0.41819513,1.5395871,-1.4325441,2
1.59E+12,-0.9076074,0.23634109,-0.504676,1.0423381,2.0747192,-1.7944511,2
1.59E+12,-1.1265562,0.43612581,-0.7360813,1.0236831,1.9750482,-1.2635831,2
1.59E+12,-1.0824789,0.78730613,-0.49174032,3.5628953,-0.8525169,-2.07854,2
1.59E+12,-1.0269034,0.6385456,-0.68601537,2.2804973,0.82376814,-1.8520151,2
1.59E+12,-1.509357,1.0936906,-0.69416004,3.3651521,-1.2991709,-1.7981821,2
1.59E+12,-1.624341,1.3739641,-0.41005373,4.134804,-0.49540684,-2.1696832,2
1.59E+12,-1.7491465,1.5469191,-0.2723125,4.720571,-1.8316379,-2.418061,2
1.59E+12,-1.6339229,1.560334,-0.0658204,5.635732,-4.049451,-3.3982482,2
1.59E+12,-1.2168665,1.5253596,0.075753644,4.796257,-3.228631,-4.3128757,2
1.59E+12,-0.8388565,1.3382711,0.098031804,3.8256643,-3.164671,-4.243053,2
1.59E+12,-0.3580797,0.9887676,0.24200134,3.0474842,-3.861835,-4.198281,2
1.59E+12,0.2326506,0.76406974,0.13707845,0.72093916,-1.3700598,-3.475533,2
1.59E+12,0.34404135,0.72622085,0.07431635,-0.2555169,-0.5135289,-2.27042,2
1.59E+12,0.25013775,0.68549734,0.1569611,-0.23632887,-0.6238599,-0.4816721,2
1.59E+12,0.05897685,0.7360424,0.1114466,-0.96600586,0.12340616,1.0539008,2
1.59E+12,-0.14032875,0.88600075,-0.048812352,-2.0469298,0.90904814,2.1183019,2
1.59E+12,-0.3317292,1.1135732,-0.099357404,-2.506909,1.3114632,3.055316,2
1.59E+12,-0.7444738,1.5497937,-0.19014685,-2.8373687,2.274061,4.145834,2
1.59E+12,-1.0884677,1.8398888,-0.111814,-2.3741918,1.4479111,5.447953,2
1.59E+12,-1.4214422,2.224127,0.10258325,-1.2612879,0.047187153,5.989481,2
1.59E+12,-1.8150228,2.2634132,0.1344434,-1.5736259,0.061578155,6.790047,2
1.59E+12,-1.8380196,1.9232521,0.011554251,-2.2707899,0.29982916,6.8198953,2
1.59E+12,-1.7005179,1.4266651,-0.064622656,-2.6215038,0.89892113,6.04438,2
1.59E+12,-1.322508,1.1095009,-0.1606822,-3.1257217,2.300178,4.418197,2
1.59E+12,-1.0913422,0.83569515,-0.0730069,-2.7686117,3.329401,3.086763,2
1.59E+12,-1.1574581,0.5961452,-0.2512321,-2.6326969,2.653024,2.465818,2
1.59E+12,-1.0237892,0.3944441,-0.29650706,-1.5006049,0.69424915,1.3012129,2
1.59E+12,-1.1380545,0.1616015,-0.38298458,-0.28376588,-1.3807198,0.7751419,2
1.59E+12,-1.3550868,0.07416575,-0.2608141,0.61060816,-1.7937948,0.4601389,2
1.59E+12,-1.3905402,0.23682019,-0.19254234,0.8429962,-1.0070868,-0.6255821,2
1.59E+12,-1.1447619,0.75640416,-0.29075783,0.39740813,0.29982916,-1.9474221,2
1.59E+12,-1.1828504,1.059914,-0.21074815,1.4943221,-0.112712845,-2.971848,2
1.59E+12,-1.3076559,1.3382711,-0.17577384,2.0656981,-0.51619387,-3.4105072,2
1.59E+12,-1.4224004,1.6604658,-0.09049405,2.4681132,-0.57269186,-3.8971362,2
1.59E+12,-1.4597701,1.8820496,0.03407195,2.7964413,-0.29872984,-4.438664,2
1.59E+12,-1.4636029,1.8664789,0.21660905,3.1993892,-0.10471784,-4.676382,2
1.59E+12,-1.5879295,2.1153712,0.22523284,2.8524063,-0.22197784,-5.056411,2
1.59E+12,-1.2209388,1.9469677,0.20031965,2.6408052,-0.5012699,-5.668295,2
1.59E+12,-0.90976334,1.6417811,0.07910735,2.0219922,-0.48421383,-5.4375057,2
1.59E+12,-0.5604994,1.2695203,0.03311375,1.8823462,-0.97883785,-4.856536,2
1.59E+12,-0.10200075,0.87090904,0.098031804,2.303949,-1.8502928,-4.399222,2
1.59E+12,0.32272142,0.681425,0.204392,1.936179,-1.9840758,-3.9994721,2
1.59E+12,0.40057516,0.647888,0.0764723,0.5471811,-0.75817585,-2.6829622,2
1.59E+12,0.10209586,0.58105356,0.03598835,0.19966513,-0.74325186,0.2831829,2
1.59E+12,-0.1357773,0.6498044,0.052517302,-0.080159865,-0.102585845,1.6279418,2
1.59E+12,-0.26154107,0.7988045,-0.061268948,-0.78105485,0.38990617,2.2877958,2
1.59E+12,-0.5068402,1.0323657,-0.1031902,-0.97026986,0.40483016,3.1986928,2
1.59E+12,-0.76842886,1.3588724,0.00772145,-0.75387186,0.88186514,4.3110642,2
1.59E+12,-1.1021221,1.8727071,-0.038751252,-1.443574,2.0539322,5.537497,2
1.59E+12,-1.5785869,2.316833,0.0208967,-2.2260177,2.8155892,6.731417,2
1.59E+12,-1.9036564,2.4246304,-0.10151335,-2.6993217,1.7128122,7.124771,2
1.59E+12,-1.9120405,1.8235995,-0.044500448,-1.8065469,-0.26408485,6.9185,2
1.59E+12,-1.7953796,1.3550396,-0.048812352,-1.1349669,-1.1302098,5.867424,2
1.59E+12,-1.4911512,1.155255,-0.13792494,-1.8246689,0.93569815,4.351572,2
1.59E+12,-1.2010562,0.8421631,0.0108356,-1.8454559,3.002139,3.1901648,2
1.59E+12,-1.0966123,0.49553418,-0.07468375,-2.1588597,3.1822932,2.672622,2
1.59E+12,-0.946654,0.26676396,-0.15948445,-1.5112649,0.8227021,1.4238029,2
1.59E+12,-1.0834371,0.15321724,-0.25722083,-1.2405009,0.08343116,1.1466429,2
1.59E+12,-1.1852459,0.2234054,-0.17769025,-0.016199868,-0.75977486,0.4516109,2
1.59E+12,-1.2168665,0.33000514,-0.15325615,0.54291713,-1.1366059,-0.45822012,2
1.59E+12,-1.2142314,0.5451211,-0.2129041,0.73000014,-1.0737118,-1.322213,2
1.59E+12,-1.0728968,0.8541406,-0.1994893,1.1516031,-0.82906485,-2.5646362,2
1.59E+12,-1.106913,1.1087822,-0.097920105,1.8285131,-0.99482787,-3.2282212,2
1.59E+12,-1.3026254,1.4271442,-0.0217432,2.004403,-0.70434284,-3.5778692,2
1.59E+12,-1.4624052,1.6171074,0.16678265,2.1456482,-0.092991844,-3.9264512,2
1.59E+12,-1.7230356,2.0645866,0.13252701,1.4969871,0.65427417,-4.3661757,2
1.59E+12,-1.5723586,2.3525257,0.142109,0.82274216,1.6184711,-5.414587,2
1.59E+12,-1.1466782,2.1472316,0.055871,0.9160172,2.383326,-5.851114,2
1.59E+12,-0.7887906,1.7043035,-0.038751252,1.4021131,2.1674612,-5.3373017,2
1.59E+12,-0.58972454,1.3698918,0.0165848,2.5635202,0.69904613,-4.497827,2
1.59E+12,-0.3331665,1.0867436,0.1167167,3.3486292,-0.82480085,-4.02932,2
1.59E+12,-0.03396855,0.83138335,0.2067875,3.3294413,-1.9680858,-3.710586,2
1.59E+12,0.19599946,0.6280054,0.19624731,1.7709491,-1.3737909,-2.4239242,2
1.59E+12,0.15527596,0.57099247,0.1435463,0.59461814,-0.12017484,-1.0093421,2
1.59E+12,-0.01001355,0.5604523,0.11983085,-0.11853587,0.54500914,0.5422209,2
1.59E+12,-0.13218406,0.6416597,0.031436898,-0.78105485,0.6222941,1.5581189,2
1.59E+12,-0.2996295,0.7865874,-0.0164731,-1.2863389,0.7118381,2.4492948,2
1.59E+12,-0.5334303,1.1209992,-0.03252295,-1.5928138,0.63988316,3.2893028,2
1.59E+12,-0.8644884,1.6142327,-0.0025792,-1.7623079,0.26358518,4.102128,2
1.59E+12,-1.1921928,1.994159,-0.0337207,-1.8172069,-0.20652086,5.074853,2
1.59E+12,-1.6648248,1.964934,-0.013358951,-1.622129,-0.74804884,6.484638,2
1.59E+12,-1.8363428,1.8693535,0.029760052,-1.0614129,-1.0385338,6.525679,2
1.59E+12,-1.7242334,1.6010574,-0.0950455,-1.3412379,-0.70647484,5.582269,2
1.59E+12,-1.6224245,1.2357438,-0.082588896,-1.5160619,0.5476741,4.8861713,2
1.59E+12,-1.2604645,0.92744285,-0.039949,-1.464361,1.6174052,3.608037,2
1.59E+12,-1.1624886,0.7671839,0.1167167,-1.0411589,1.8194122,2.8112018,2
1.59E+12,-1.0752923,0.5079908,0.11887266,-1.052352,1.2277822,2.4652848,2
1.59E+12,-1.2080032,0.2602961,-0.13840404,-1.5571029,0.38244417,1.9887829,2
1.59E+12,-1.2549549,0.20807418,-0.22703755,-1.2703489,0.39097217,1.1658309,2
1.59E+12,-1.1689565,0.2971868,-0.1362481,-0.22033888,0.27158016,-0.0435461,2
1.59E+12,-1.1862041,0.45528978,-0.0404281,0.69588816,-0.5028689,-1.1276681,2
1.59E+12,-1.149553,0.6548349,-0.03635575,1.1153591,-1.0502598,-2.00392,2
1.59E+12,-1.1433246,0.92935926,-0.0485728,1.1041662,-0.87863386,-2.805552,2
1.59E+12,-1.1804549,1.1289045,0.053235948,1.4527481,-0.6281239,-3.365735,2
1.59E+12,-1.2949598,1.4036682,0.0712022,1.503383,-0.40373084,-3.744698,2
1.59E+12,-1.4513859,1.8154547,0.10737425,1.515642,-0.114311844,-4.165235,2
1.59E+12,-1.4274309,2.0614724,0.00867965,1.2773911,-0.12763685,-4.788845,2
1.59E+12,-1.1888391,1.9778696,0.015387049,1.0300791,-0.024767844,-5.213646,2
1.59E+12,-0.8951508,1.6645381,-0.0375535,0.90908813,0.86107814,-5.0654716,2
1.59E+12,-0.67308795,1.4467872,-0.0341998,1.0833791,1.1329082,-4.732347,2
1.59E+12,-0.349935,1.0129622,0.1076138,1.9708241,-0.14629185,-4.223332,2
1.59E+12,-0.0045039,0.77029806,0.16917816,1.9479051,-1.7085148,-3.721246,2
1.59E+12,0.2125284,0.72214854,0.19888236,1.1041662,-1.6925248,-3.3273592,2
1.59E+12,0.23744161,0.6905279,0.0874916,-0.102545865,-0.6739619,-1.8472182,2
1.59E+12,0.014420549,0.68645555,0.009877401,-0.45592487,-0.24969386,0.2085629,2
1.59E+12,-0.23327415,0.7358028,0.0903662,-0.14358687,0.09036016,1.8592639,2
1.59E+12,-0.4299447,0.9046856,0.1631894,-0.25871488,0.34886515,2.8319888,2
1.59E+12,-0.7792086,1.3344383,0.17205276,-0.88978684,0.62815714,4.0669503,2
1.59E+12,-1.0618776,1.7536509,0.2532602,-0.9068428,0.35952517,4.9421363,2
1.59E+12,-1.2041703,1.8348583,0.05563145,-1.4899449,0.15698515,5.832779,2
1.59E+12,-1.55032,1.7110109,0.1330061,-1.3918729,0.22467615,6.919566,2
1.59E+12,-1.6665018,1.5624899,0.20750615,-1.0635449,0.25985417,6.5779133,2
1.59E+12,-1.6087701,1.1425588,-0.052645154,-1.8044149,0.39576918,5.477268,2
1.59E+12,-1.5201367,0.82802963,0.08533565,-1.1003219,0.33660617,4.359567,2
1.59E+12,-1.0259451,0.75760186,0.24918786,-0.11746987,0.47891715,2.20678,2
1.59E+12,-0.9809097,0.6742385,0.22619104,-0.52361584,0.76940215,1.8555329,2
1.59E+12,-1.1181719,0.42247143,0.04988225,-1.1248399,0.75714314,2.1668048,2
1.59E+12,-1.3052604,0.2689199,-0.084744856,-1.1088499,-0.13989586,1.7915729,2
1.59E+12,-1.2774726,0.23274784,-0.15517256,-0.61848986,-0.59187984,0.5837949,2
1.59E+12,-1.0199564,0.5772208,-0.029648349,0.52159715,-0.20278984,-1.750745,2
1.59E+12,-1.0728968,0.76047647,-0.03156475,0.97891116,-0.73045987,-2.3354461,2
1.59E+12,-1.18309,1.0529671,-0.06174805,1.153735,-1.5065078,-2.987838,2
1.59E+12,-1.3004694,1.4091779,-0.030366998,1.2390151,-1.2698559,-3.695662,2
1.59E+12,-1.3203521,1.5945896,0.0721604,1.3520111,-0.56043285,-4.2196007,2
1.59E+12,-1.3859887,1.845638,0.12917331,1.2480761,0.40163216,-4.611356,2
1.59E+12,-1.3383182,2.0677009,0.18450935,1.3967831,0.76993513,-5.20192,2
1.59E+12,-1.1675192,1.991524,0.1545656,1.1841161,0.32381415,-5.37248,2
1.59E+12,-0.9001814,1.586924,0.036707,0.71081215,0.29609817,-5.194991,2
1.59E+12,-0.6103259,1.2800605,0.04413305,0.6996192,0.5519381,-4.820825,2
1.59E+12,-0.1865619,0.858692,0.0999482,1.0002311,0.25665617,-4.313942,2
1.59E+12,0.10640775,0.7372402,0.19504955,1.3642701,-0.78695786,-3.703124,2
1.59E+12,0.21947534,0.6445343,0.1823534,0.82487416,-1.0300058,-2.7133431,2
1.59E+12,0.1344351,0.61674654,0.1272569,0.13623813,-0.38400984,-1.1074141,2
1.59E+12,-0.01863735,0.61554873,0.04030025,-0.31201488,0.071172155,0.4766619,2
1.59E+12,-0.21842206,0.73867744,0.0007745,-0.25871488,-0.39253783,1.6961659,2
1.59E+12,-0.37173405,0.8855216,-0.034439348,-0.41914788,-0.25982085,2.7499068,2
1.59E+12,-0.61990786,1.1708257,-0.015035801,-0.7133638,0.36698717,3.943827,2
1.59E+12,-0.9250945,1.5382954,0.04844495,-1.0656769,1.0508262,4.997568,2
1.59E+12,-1.260225,2.0427878,0.1847489,-1.106718,0.9847341,5.716585,2
1.59E+12,-1.5060033,1.8957039,0.061141096,-1.3534969,-0.027432844,6.5581923,2
1.59E+12,-1.6837494,1.8231204,0.0755141,-0.87113184,-0.8781009,6.65733,2
1.59E+12,-1.7055485,1.6103998,0.1512119,-0.4958999,-0.48741183,5.7469664,2
1.59E+12,-1.6233828,1.1171664,0.08006555,-0.98039687,0.28330615,5.0082283,2
1.59E+12,-1.3275386,0.73963565,0.016345251,-1.5075339,1.5816942,3.8212368,2
1.59E+12,-1.0681059,0.61674654,0.06377615,-1.5533719,2.8886101,2.3688118,2
1.59E+12,-1.0827185,0.4212737,0.0769514,-1.2911359,2.093907,1.9232239,2
1.59E+12,-1.2233343,0.3005405,-0.117802754,-0.82102984,-0.35362884,1.0837489,2
1.59E+12,-1.31077,0.33287975,-0.14942335,-0.32640588,-0.9298019,0.3162289,2
1.59E+12,-1.184048,0.50966763,-0.16235904,0.082405135,-0.6510429,-0.9912201,2
1.59E+12,-1.0439113,0.7710167,-0.1367272,0.64578617,-0.70594186,-2.271486,2
1.59E+12,-1.0578053,0.9799043,-0.1017529,1.0428711,-0.9298019,-2.8823042,2
1.59E+12,-1.1761429,1.2362229,-0.061268948,1.2416801,-1.0992959,-3.455279,2
1.59E+12,-1.2516012,1.5138613,0.00628415,1.3887881,-0.84985185,-4.052772,2
1.59E+12,-1.3728135,1.7788036,0.062578395,1.3205642,-0.11217984,-4.389095,2
1.59E+12,-1.2556735,1.7716172,0.1588775,1.4756671,0.5412781,-4.896511,2
1.59E+12,-1.205368,1.862167,0.1713341,1.3898541,0.73422414,-5.240296,2
1.59E+12,-0.58421487,1.510268,0.0946781,1.2310201,0.23800115,-5.24989,2
1.59E+12,-1.0283406,1.9965546,0.13037105,1.1462731,0.7891231,-5.519588,2
1.59E+12,-0.35472602,0.9679268,0.03790475,1.207568,-0.40746182,-4.105539,2
1.59E+12,-0.02869845,0.691007,0.1358807,1.2997772,-0.61479884,-3.3710651,2
1.59E+12,0.1698885,0.63519186,0.17828104,1.1068311,-0.6052049,-2.864182,2
1.59E+12,0.191448,0.6565118,0.16774085,0.7140102,-0.73045987,-1.8290961,2
1.59E+12,0.13036275,0.65818864,0.15217009,0.07760813,-0.44423884,0.3370159,2
1.59E+12,0.0366987,0.6751967,0.12414275,-0.59610385,0.14046215,2.1806629,2
1.59E+12,-0.3001086,0.85581744,0.0328742,-0.78745085,0.35206318,3.0803668,2
1.59E+12,-0.464919,1.043385,0.007960999,-1.0496869,0.62762415,4.0621533,2
1.59E+12,-0.7025526,1.364382,0.021375801,-1.239968,0.8600121,5.070589,2
1.59E+12,-0.9866589,1.7083759,0.0779096,-1.4281169,0.6665331,5.7517633,2
1.59E+12,-1.2575899,2.056442,0.101145945,-1.364157,-0.060478847,6.5192833,2
1.59E+12,-1.5220531,1.9163052,0.07910735,-0.82849187,-0.93726385,6.410018,2
1.59E+12,-1.6636273,1.7728148,0.091324404,-0.83968484,-0.66809887,5.486329,2
1.59E+12,-1.6042188,1.3135974,0.057068747,-1.2234449,0.33873817,4.688428,2
1.59E+12,-1.5982301,0.84839135,-0.060789846,-0.87432986,1.5140032,2.7205918,2
1.59E+12,-1.2142314,0.68406004,0.06425525,-0.35518786,1.6062121,1.4062139,2
1.59E+12,-0.96509945,0.576023,0.19696595,-0.4740469,0.8077781,1.4056809,2
1.59E+12,-1.0343293,0.37887335,0.13851574,-0.5305448,-0.25875482,0.95742786,2
1.59E+12,-1.1057153,0.3062897,0.0065237,-0.14145488,-0.90155286,0.3119649,2
1.59E+12,-1.2597458,0.3139553,-0.02485735,0.13197413,-1.0310718,-0.9022091,2
1.59E+12,-1.2115964,0.51445866,-0.0389908,0.4405811,-0.6803579,-2.6440532,2
1.59E+12,-1.0367248,0.8735441,-0.056957047,0.65697914,-0.87916684,-2.997965,2
1.59E+12,-1.1301494,1.0294912,-0.03300205,0.7017512,-0.88876086,-3.6119812,2
1.59E+12,-1.1538647,1.2601779,-0.0754024,0.87124515,-0.5012699,-4.113001,2
1.59E+12,-1.2082427,1.5258387,-0.0461773,1.4634081,-0.18306884,-4.5228777,2
1.59E+12,-1.18309,1.6185446,0.11695625,1.4852611,-0.10098684,-4.747271,2
1.59E+12,-1.2475288,1.8513873,0.1766042,1.165994,-0.09992084,-5.033492,2
1.59E+12,-1.1049966,1.9002554,0.16103345,0.71667516,-0.062077846,-4.781383,2
1.59E+12,-0.81945294,1.6103998,0.04700765,0.61966914,0.20495515,-4.086884,2
1.59E+12,-0.57487243,1.2565845,0.018022101,0.8350012,0.115411155,-3.354542,2
1.59E+12,-0.3973659,0.93798304,0.01251245,1.1361461,-0.38720784,-3.073651,2
1.59E+12,-0.100803,0.73029315,0.10689515,0.97571313,-0.6302559,-2.745856,2
1.59E+12,0.15623415,0.6541163,0.1885817,0.28014812,-0.43944183,-1.7192981,2
1.59E+12,0.16964895,0.6498044,0.1124048,-0.11427187,-0.24756186,-0.2578121,2
1.59E+12,0.0529881,0.6533977,0.10689515,-0.76613086,0.35845917,1.3934219,2
1.59E+12,-0.129549,0.7592787,0.0141893,-0.9382898,0.45013517,1.8709899,2
1.59E+12,-0.29938996,0.9408577,-0.01958725,-1.1589519,0.5375471,3.085697,2
1.59E+12,-0.4879158,1.1808867,-0.038751252,-1.252227,0.55033916,4.0157824,2
1.59E+12,-0.6936892,1.4372052,-0.0318043,-1.2095869,0.46772417,4.813683,2
1.59E+12,-1.042474,1.9455303,0.1128839,-1.3321769,0.10848216,5.460212,2
1.59E+12,-1.1847668,2.0221863,0.0769514,-1.6120019,-0.23636885,6.18829,2
1.59E+12,-1.4224004,1.8904339,-0.00713065,-1.1861349,-0.17987084,6.048111,2
1.59E+12,-1.5438522,1.7311331,0.0731186,-1.3028619,0.18843216,5.205438,2
1.59E+12,-1.5553505,1.4757727,-0.0179104,-1.605606,0.83016413,4.3505063,2
1.59E+12,-1.4413248,0.99906826,-0.111814,-1.3956039,1.8295392,3.148058,2
1.59E+12,-1.2674115,0.65866774,-0.044500448,-0.45699087,1.6451212,1.9098989,2
1.59E+12,-1.0772088,0.49074322,0.19696595,-0.65579987,0.93729717,1.3641069,2
1.59E+12,-1.0681059,0.3374312,0.09539675,-0.9052439,-0.029031845,0.7842029,2
1.59E+12,-1.1193696,0.29646814,-0.100794695,-0.29868987,-0.7842929,0.1387399,2
1.59E+12,-1.2233343,0.31084114,-0.1415182,0.29347312,-1.1584588,-1.1287341,2
1.59E+12,-1.1277539,0.5312272,-0.1314571,0.6516492,-1.2810488,-2.442579,2
1.59E+12,-1.0065415,0.80814695,-0.15852626,0.89789516,-1.3881818,-3.02728,2
1.59E+12,-1.0817602,1.1593273,-0.11540725,1.2512741,-1.3503388,-3.982949,2
1.59E+12,-1.1344612,1.4281023,-0.08570305,1.3306911,-0.72246486,-4.3299317,2
1.59E+12,-1.2427379,1.6791508,0.014907951,1.403179,0.051984154,-4.612955,2
1.59E+12,-1.2712443,1.8178501,0.1598357,1.1969081,0.47998318,-4.932755,2
1.59E+12,-1.2355514,1.8240786,0.2048711,0.92561114,0.53808016,-5.2195086,2
1.59E+12,-1.1370963,1.9912844,0.18403025,0.6953552,0.37551516,-5.396998,2
1.59E+12,-0.77657354,1.7912601,0.07910735,0.89363116,0.035994153,-4.531406,2
1.59E+12,-0.56145763,1.3083274,0.03598835,1.2976451,-0.20865285,-3.7404342,2
1.59E+12,-0.2574687,0.93486893,0.122705445,1.2571371,-0.35682684,-3.366801,2
1.59E+12,0.13203959,0.71663886,0.1751669,1.045536,-0.65370786,-2.4814882,2
1.59E+12,0.29996413,0.6562723,0.22690971,0.5743641,-0.5305849,-0.9746971,2
1.59E+12,0.22282906,0.6172256,0.20415244,0.07547613,-0.22890685,0.38232088,2
1.59E+12,0.0544254,0.6450134,0.17971835,-0.46924987,-0.006112844,1.4222039,2
1.59E+12,-0.116373755,0.7489781,0.0884498,-0.87752783,0.27051416,2.2478209,2
1.59E+12,-0.24668893,0.91115344,0.050121803,-1.2426329,0.6681321,3.126205,2
1.59E+12,-0.5569062,1.3346779,-0.0361162,-1.622662,1.0209782,4.629798,2
1.59E+12,-0.85586464,1.6884931,0.032395102,-1.5688289,0.65853816,5.242215,2
1.59E+12,-1.0944564,2.1910691,0.1066556,-1.760176,-0.060478847,6.072629,2
1.59E+12,-1.317717,2.020749,-0.038751252,-0.94361985,-0.78749084,6.5288773,2
1.59E+12,-1.530677,1.8516268,0.06856715,-0.52041787,-0.67129683,5.649427,2
1.59E+12,-1.5931995,1.6992729,0.124621846,-1.1914649,-0.057280846,4.9298773,2
1.59E+12,-1.5809824,1.1959784,-0.1108558,-1.2031909,1.2784172,3.917177,2
1.59E+12,-1.4053923,0.72214854,-0.08809855,-0.64780486,2.178121,2.050078,2
1.59E+12,-1.0822394,0.63615,0.13180836,-0.4937679,1.8956312,1.4893619,2
1.59E+12,-1.0072602,0.4413959,0.1991219,-1.0662099,0.7166351,1.2511109,2
1.59E+12,-1.0822394,0.31515306,-0.071330056,-0.49643287,-0.8711719,0.4830579,2
1.59E+12,-1.1938697,0.3010196,-0.1343317,0.13837013,-1.3844508,-0.4129151,2
1.59E+12,-1.2348326,0.40857753,-0.1300198,0.4874851,-1.0705138,-2.0300372,2
1.59E+12,-1.0333712,0.772454,-0.111814,0.7369292,-0.92873585,-3.044336,2
1.59E+12,-0.96485984,1.1063867,-0.1697851,1.1185571,-1.2208198,-3.350811,2
1.59E+12,-1.0297779,1.2843723,-0.11349086,1.3589401,-1.2575969,-3.8774152,2
1.59E+12,-1.1277539,1.5921941,-0.061029397,1.6462271,-1.1691188,-4.328333,2
1.59E+12,-1.1241605,1.7378404,0.1315688,1.1969081,-0.61906284,-4.438664,2
1.59E+12,-1.1641655,1.6822649,0.11072795,0.77583814,0.10848216,-4.9167647,2
1.59E+12,-1.1229628,2.0274565,0.19121675,0.64258814,0.093025155,-5.186463,2
1.59E+12,-0.90904474,1.988889,0.118393555,0.5578412,-0.24862786,-4.749403,2
1.59E+12,-0.66829693,1.5387745,0.01682435,0.7140102,-0.08659584,-4.168966,2
1.59E+12,-0.31951216,1.1389655,0.082461044,0.7912952,0.09995416,-3.7670841,2
1.59E+12,0.1598274,0.8505473,0.17971835,0.63565916,-0.004513844,-2.923345,2
1.59E+12,0.44153818,0.7477804,0.2403245,0.17035012,-0.06794084,-1.1585821,2
1.59E+12,0.32152364,0.6359105,0.15001415,0.13623813,-0.11058084,0.0102869,2
1.59E+12,0.2403162,0.6543559,0.1972055,-0.32747188,-0.10844884,1.0885459,2
1.59E+12,-0.05169525,0.8292273,0.071441755,-0.82529384,0.10688316,2.3469589,2
1.59E+12,-0.22752495,1.0431454,-0.01623355,-0.91643685,0.20282315,3.2599878,2
1.59E+12,-0.460128,1.3013804,-0.0274924,-0.7821208,0.24013315,4.142103,2
1.59E+12,-0.66111046,1.6070461,0.02065715,-0.88179183,0.42028716,5.077518,2
1.59E+12,-1.027622,2.0193117,0.10737425,-1.2026579,0.5540701,5.512979,2
1.59E+12,-1.1600931,2.2059212,0.0635366,-1.7031449,0.5764561,6.050243,2
1.59E+12,-1.3088536,1.8350979,-0.073486,-1.1861349,0.6350861,5.816256,2
1.59E+12,-1.4624052,1.6999916,0.050121803,-1.5048689,1.2059292,4.458705,2
1.59E+12,-1.3440675,1.6544771,0.01299155,-2.3496737,1.9270782,3.8409579,2
1.59E+12,-1.2199806,1.1214783,-0.2085922,-2.4930508,2.848102,3.204023,2
1.59E+12,-1.0628358,0.7863479,-0.25434625,-1.8827659,3.119399,2.0314229,2
1.59E+12,-0.87407035,0.5678783,-0.16092175,-1.243699,1.6845632,1.4616458,2
1.59E+12,-0.8925158,0.3982769,-0.16283815,-0.80344087,-0.000782844,0.89879787,2
1.59E+12,-0.95240325,0.3350357,-0.27446845,-0.26244587,-0.93246686,0.5049109,2
1.59E+12,-1.121286,0.32569325,-0.327409,0.29773712,-1.0022898,-0.3361631,2
1.59E+12,-1.217106,0.47565156,-0.33076268,1.2166291,-0.48261485,-2.8124812,2
1.59E+12,-0.93659294,1.0084107,-0.21266456,1.7075222,-0.49700585,-3.43769,2
1.59E+12,-0.8980254,1.2266408,-0.14559056,2.2090752,-1.1808448,-3.740967,2
1.59E+12,-0.9490496,1.443194,-0.10630435,2.5970993,-1.7826018,-3.98668,2
1.59E+12,-1.1006848,1.7366428,-0.0341998,2.7068973,-1.7937948,-4.214271,2
1.59E+12,-1.1965047,1.9340318,0.0438935,2.5006263,-1.4734617,-4.413613,2
1.59E+12,-1.1208069,1.7871878,0.0755141,2.1659021,-1.3279529,-4.783515,2
1.59E+12,-1.0333712,1.8415657,0.074555896,1.6691461,-1.1382048,-5.230702,2
1.59E+12,-0.8355028,1.9232521,0.0855752,1.1222881,-1.0870368,-5.0292277,2
1.59E+12,-0.49366498,1.6413019,0.07479545,0.62819713,-0.60147387,-4.029853,2
1.59E+12,-0.1257162,1.1001585,0.07239995,0.30413312,0.050918154,-2.8625832,2
1.59E+12,0.05562315,0.73867744,0.0644948,0.30253413,0.06584216,-1.7912531,2
1.59E+12,0.06424695,0.6270472,0.0970736,0.32865113,-0.10418484,-1.3259441,2
1.59E+12,0.1837824,0.6646565,0.20151739,-0.08548987,-0.07593584,-0.6884761,2
1.59E+12,0.20845604,0.7762868,0.11384211,-0.41861486,0.09888816,1.1119978,2
1.59E+12,0.029751752,0.8934267,0.11408164,-0.6803178,0.46292716,2.2073128,2
1.59E+12,-0.18895741,1.023742,0.059464253,-0.93136084,0.6787921,3.0398588,2
1.59E+12,-0.37844145,1.2405347,0.02832275,-1.1749419,0.72409713,3.772734,2
1.59E+12,-0.5808612,1.4594834,-0.00569335,-0.9798638,0.6707971,4.552513,2
1.59E+12,-0.90976334,1.8583342,0.1258196,-1.218648,0.33074316,5.0641932,2
1.59E+12,-1.0915818,2.2301157,0.16199166,-1.9872339,0.28170717,5.583868,2
1.59E+12,-1.1790175,2.053328,-0.10199245,-1.922208,0.6121671,6.0523753,2
1.59E+12,-1.3617942,1.8995367,-0.068695,-1.7122059,1.1025271,5.477268,2
1.59E+12,-1.396529,1.7510157,-0.05360335,-2.0320058,1.1526291,4.708149,2
1.59E+12,-1.3593987,1.3306055,-0.2066758,-1.9328679,1.6381922,4.077077,2
1.59E+12,-1.2781913,0.8512659,-0.2560231,-1.427051,2.762289,1.9376149,2
1.59E+12,-0.9495287,0.56021273,-0.11157445,-1.2527599,2.736705,1.3710359,2
1.59E+12,-0.93060416,0.39899555,-0.1745761,-0.75173986,0.96234816,0.9952709,2
1.59E+12,-1.0642731,0.28784436,-0.2593768,0.22098513,-1.2671908,0.1765829,2
1.59E+12,-1.1876414,0.3642608,-0.26464692,0.7907621,-1.7005198,-1.1164751,2
1.59E+12,-1.1222441,0.59398925,-0.25482535,1.286985,-1.2730538,-2.4948132,2
1.59E+12,-0.9758792,0.90348786,-0.17625295,1.6190441,-1.1115549,-3.357207,2
1.59E+12,-0.9301251,1.1863964,-0.12642655,2.0294542,-1.4111007,-3.875816,2
1.59E+12,-0.9861798,1.4755332,-0.056477953,2.1856232,-1.4723958,-4.248383,2
1.59E+12,-1.1450014,1.8406074,0.0261668,2.1978822,-1.2245508,-4.571381,2
1.59E+12,-1.1725497,1.9134306,0.11360256,1.6547551,-0.6617029,-4.817627,2
1.59E+12,-1.1641655,1.9927218,0.08773115,1.4879261,-0.28593785,-5.317048,2
1.59E+12,-1.0419949,2.139566,0.12510094,1.3253611,-0.35576084,-5.37248,2
1.59E+12,-0.7971748,1.9709227,0.0956363,1.1697251,-0.49807182,-4.712093,2
1.59E+12,-0.3710154,1.3341987,0.09204305,0.9533272,-0.25502384,-3.857161,2
1.59E+12,-0.0375618,0.9890072,0.10785335,1.0060941,-0.54337686,-2.826872,2
1.59E+12,0.06472605,0.78275466,0.19409135,0.78756416,-0.46555883,-2.090799,2
1.59E+12,0.2331297,0.7168784,0.26068625,0.12397913,-0.31898382,-1.1756381,2
1.59E+12,0.27888376,0.70178676,0.20319426,-0.46072188,0.041324154,-0.035551097,2
1.59E+12,0.21803805,0.7168784,0.09779225,-0.71283084,0.45226717,1.0965409,2
1.59E+12,0.03981285,0.85965025,0.05108,-0.64567286,0.37444916,2.092718,2
1.59E+12,-0.1381728,0.9772693,0.021375801,-0.44046786,0.16604616,2.9945538,2
1.59E+12,-0.36071473,1.1971762,0.08437745,-0.55506283,0.15751815,3.8430898,2
1.59E+12,-0.6098467,1.481522,0.0731186,-0.77146083,0.25185916,4.615407,2
1.59E+12,-0.9054515,1.9225336,0.1363598,-1.052352,0.39310417,5.278992,2
1.59E+12,-1.0726573,2.315156,0.14618134,-1.676495,0.41389117,6.266641,2
1.59E+12,-1.3332877,2.0954888,-0.02006635,-1.318852,0.52742016,6.62002,2
1.59E+12,-1.528042,1.8439611,0.054673247,-1.5698949,0.96927714,5.5364313,2
1.59E+12,-1.5800242,1.6777134,-0.049531,-1.8912939,1.3295852,4.456573,2
1.59E+12,-1.4334196,1.1744189,-0.1678687,-1.7052768,3.120465,2.5335088,2
1.59E+12,-0.99959457,0.6799877,-0.052645154,-1.680759,3.257446,1.7899739,2
1.59E+12,-0.8925158,0.51110494,-0.05983165,-1.5544379,2.114694,1.3401219,2
1.59E+12,-0.9277296,0.41576403,-0.18200216,-0.98039687,0.056248154,0.8955999,2
1.59E+12,-1.1028407,0.3934859,-0.3101614,-0.13239388,-1.6237679,0.3018379,2
1.59E+12,-0.8513131,-1.3295972,0.671754,-2.8832068,-0.035427846,4.4874873,3
1.59E+12,-0.70279217,-2.3637347,0.43627638,-1.372685,0.11754316,2.1508148,3
1.59E+12,-0.8196925,-2.3769097,0.39770883,0.7864981,-0.124971844,-0.7353801,3
1.59E+12,-0.9037746,-1.5612421,0.7184663,1.3957171,-0.037026845,-2.5497122,3
1.59E+12,-0.9078469,-0.8533718,0.8499792,0.7449241,1.2309802,-3.2308862,3
1.59E+12,-1.0865513,-0.5412382,0.7467332,0.49654612,2.066191,-3.863024,3
1.59E+12,-1.0745738,-0.238447,0.5955771,0.6516492,2.427565,-4.008,3
1.59E+12,-0.9789933,-0.0333922,0.53329414,1.2294211,1.7757062,-3.7478962,3
1.59E+12,-0.92221993,0.09045515,0.6422894,1.5721401,2.005429,-3.4419541,3
1.59E+12,-0.7097391,0.24089256,0.7381094,1.5593481,1.5486482,-2.8002222,3
1.59E+12,-0.6579963,0.22029126,0.8027879,1.7016591,1.1126542,-2.068413,3
1.59E+12,-0.64673746,0.25718194,0.8748924,1.2102331,0.83442813,-1.7256941,3
1.59E+12,-0.57774705,0.3288074,0.85237473,1.4889921,0.049852155,-1.0994191,3
1.59E+12,-0.47330326,0.44091678,0.9419664,0.5183992,-0.23423685,-0.1981161,3
1.59E+12,-0.4328193,0.46966282,0.9156159,0.5183992,-0.23423685,-0.1981161,3
1.59E+12,-0.42611188,0.50966763,0.958735,-0.18249588,-0.49380782,0.81778187,3
1.59E+12,-0.52744156,0.5312272,0.8605194,-0.88285786,-0.37708083,1.3982189,3
1.59E+12,-0.61703324,0.4854731,0.6705563,-1.17281,-0.5614989,2.2217038,3
1.59E+12,-0.82951415,0.40426564,0.57593405,-1.3737509,-0.59934187,2.870365,3
1.59E+12,-0.9176685,0.36354214,0.5558118,-1.5480419,-0.73685586,3.718901,3
1.59E+12,-1.0906236,0.2574215,0.57210124,-1.8070799,-0.63505286,4.808353,3
1.59E+12,-1.3296945,-0.00776035,0.7572734,-3.343186,0.12393916,5.3306932,3
1.59E+12,-1.5052847,-0.54004043,0.5411993,-3.7360067,0.003481156,4.760383,3
1.59E+12,-1.099966,-1.5571697,0.40297896,-3.405547,0.13619815,3.3479328,3
1.59E+12,-0.8723935,-2.3354678,0.023052651,-0.72135884,0.17510715,1.2020749,3
1.59E+12,-0.9780351,-2.1816766,0.18163475,1.636633,-0.5407119,-1.122338,3
1.59E+12,-1.1169741,-1.3815796,0.3821381,2.0283883,0.33820516,-2.8359332,3
1.59E+12,-1.1114644,-0.7458139,0.44130698,2.6685212,0.20655414,-3.3625371,3
1.59E+12,-1.1035593,-0.24251935,0.63055146,2.5075552,0.07490316,-3.946705,3
1.59E+12,-1.0122907,-0.0688456,0.65977657,1.8397061,0.005080156,-3.6572862,3
1.59E+12,-1.0661895,0.0844664,0.5857556,1.7634871,0.19749315,-3.4824622,3
1.59E+12,-0.8398148,0.2253218,0.71654993,1.574272,0.25026014,-3.1205552,3
1.59E+12,-0.651768,0.3776756,0.7773956,1.337087,0.115411155,-2.3983402,3
1.59E+12,-0.5525943,0.3661772,0.85309345,1.0018301,-0.07860084,-1.8525481,3
1.59E+12,-0.42132092,0.42151326,0.7558361,1.0167542,-0.5407119,-1.2811722,3
1.59E+12,-0.3437067,0.47277695,0.8056625,1.1814511,-0.91167986,-0.5989321,3
1.59E+12,-0.30993015,0.48858723,0.8473442,0.7870312,-0.83492786,0.008687899,3
1.59E+12,-0.31567937,0.52691525,0.86507094,0.42938814,-0.7778969,0.57206887,3
1.59E+12,-0.32813594,0.5570985,0.8552493,0.30999613,-1.0433308,1.1263889,3
1.59E+12,-0.46036753,0.5549426,0.8883073,-0.008204869,-0.92820287,1.8219539,3
1.59E+12,-0.6067326,0.49529466,0.7864985,-0.030057868,-0.9298019,2.406122,3
1.59E+12,-0.60409755,0.4811612,0.834648,-0.25391787,-0.32751185,4.041366,3
1.59E+12,-0.82520217,0.31515306,0.985325,-0.99958485,0.33873817,4.896298,3
1.59E+12,-0.91287744,0.016913299,1.0452125,-2.631631,1.1078572,5.5854673,3
1.59E+12,-1.0520561,-0.59657425,0.79967374,-2.8991969,0.7891231,4.970385,3
1.59E+12,-0.66518277,-1.616099,0.65306914,-2.0517268,0.51942515,3.353263,3
1.59E+12,-0.6052953,-2.250667,0.4147169,0.048293132,0.37125117,0.90306187,3
1.59E+12,-0.81082916,-1.863075,0.8490211,0.91335213,-0.44850284,-1.9138432,3
1.59E+12,-0.80867326,-1.0464492,0.75775254,0.89149916,0.17244215,-3.123753,3
1.59E+12,-0.78280187,-0.54243594,0.76589715,1.1382781,0.16391414,-3.4217,3
1.59E+12,-0.86951894,-0.29138756,0.8284198,1.4079762,-0.12070784,-3.827846,3
1.59E+12,-0.73034036,-0.0745948,0.8408764,1.5305661,-0.15748484,-3.484594,3
1.59E+12,-0.7708243,0.0581159,0.9345404,1.2960461,0.050918154,-3.644494,3
1.59E+12,-0.45366016,0.21957259,0.94052917,0.93627113,0.058380153,-3.0752501,3
1.59E+12,-0.4227582,0.2152607,0.9053153,0.9533272,0.06744116,-2.4665642,3
1.59E+12,-0.45413923,0.3886949,0.894296,0.89149916,-0.23263785,-2.070012,3
1.59E+12,-0.3805974,0.40282837,0.9508298,0.80621916,-0.25555682,-1.6201601,3
1.59E+12,-0.2819028,0.4581644,0.9091481,0.37768713,-0.058879845,-1.1372621,3
1.59E+12,-0.17817765,0.48571268,0.8545307,0.57489717,-0.33124283,-0.1965171,3
1.59E+12,-0.1961439,0.48523355,0.9652028,0.18420812,-0.45329982,0.25226888,3
1.59E+12,-0.22249441,0.49721104,0.8938168,0.047227133,-0.24596284,0.8705489,3
1.59E+12,-0.2785491,0.46654862,0.90699214,-0.34026387,-0.15695184,1.4381939,3
1.59E+12,-0.38035786,0.43900043,0.8672269,-0.5054938,-0.054615844,1.9589349,3
1.59E+12,-0.44934827,0.43349075,0.86075896,-0.5385398,-0.06687484,2.561225,3
1.59E+12,-0.529837,0.4375631,0.86626863,-0.47671187,-0.31365383,3.2647848,3
1.59E+12,-0.6556008,0.38438302,0.8911818,-0.4521939,-0.44637084,4.3041353,3
1.59E+12,-0.8105897,0.09285065,1.0773122,-1.0832659,0.013075156,4.8174143,3
1.59E+12,-0.6635059,-0.30671877,1.1494167,-2.3342168,0.44747016,5.1452093,3
1.59E+12,-0.5178596,-1.1633495,0.8480629,-2.3395467,0.07596916,4.04563,3
1.59E+12,-0.41772765,-1.9629675,0.6192926,-0.97933084,-0.13030185,1.7878419,3
1.59E+12,-0.5552293,-1.9809338,0.65115273,0.21032512,-0.6776929,-0.8025381,3
1.59E+12,-0.7653147,-1.3530731,0.70768654,0.7017512,0.023735156,-2.5347881,3
1.59E+12,-0.69392884,-0.7965985,0.8499792,1.1089631,0.11327916,-3.297511,3
1.59E+12,-0.7205188,-0.41834903,0.9752639,1.116425,-0.26035383,-3.7953331,3
1.59E+12,-0.53654444,-0.008479,0.89788926,0.59994817,0.17617315,-3.864623,3
1.59E+12,-0.4002405,0.1726208,0.8552493,1.082846,0.12660415,-3.510178,3
1.59E+12,-0.37700415,0.38893443,1.11037,1.0625921,-0.38241082,-3.2633991,3
1.59E+12,-0.22225484,0.4069007,1.1489376,0.25616312,-0.29499882,-2.669104,3
1.59E+12,-0.15182714,0.47541198,0.9606513,0.36756012,-0.34456784,-1.8770661,3
1.59E+12,-0.1539831,0.46343452,1.0334746,0.2876101,-0.56203187,-1.2801061,3
1.59E+12,-0.1472757,0.51589596,0.9424456,0.006186131,-0.07380384,-0.8547721,3
1.59E+12,-0.0476229,0.5381741,0.86315453,-0.006605869,0.007212156,-0.1981161,3
1.59E+12,-0.0500184,0.5559008,0.8243474,0.16395412,-0.07913384,0.37912288,3
1.59E+12,-0.067745104,0.5688365,0.83057564,-0.016199868,0.15965015,1.0965409,3
1.59E+12,-0.14655705,0.5444024,0.8087767,-0.025260868,0.37338316,1.9429449,3
1.59E+12,-0.40335464,0.48762903,0.8427928,-0.017265867,0.33074316,2.453559,3
1.59E+12,-0.38179514,0.41552448,0.9055549,0.048826132,0.28703716,3.131002,3
1.59E+12,-0.26154107,0.37791514,1.0411402,-0.97666585,0.63455313,4.772109,3
1.59E+12,-0.49486274,0.22723821,1.0696466,-1.7319269,0.8413571,5.2869873,3
1.59E+12,-0.8122665,-0.420505,1.0186225,-1.5070009,0.21561515,4.7513223,3
1.59E+12,-0.5209737,-1.2093432,1.0653347,-0.85141087,-0.7256629,3.43801,3
1.59E+12,-0.5188178,-1.7615058,0.9711916,-0.29069486,-0.35309583,1.3832949,3
1.59E+12,-0.57918435,-1.6965879,0.98867875,-0.40688887,-0.33337483,-1.2545221,3
1.59E+12,-0.5030075,-1.1163977,0.79104996,-0.07429687,-0.09618984,-2.4798892,3
1.59E+12,-0.5279206,-0.7225776,0.79248726,0.41446412,-0.002381844,-3.157865,3
1.59E+12,-0.6096072,-0.45571885,0.9376546,0.8328692,-0.28487185,-3.749495,3
1.59E+12,-0.5152245,-0.228865,0.9865228,0.75718313,-0.13296685,-3.70419,3
1.59E+12,-0.4591698,-0.029319849,1.0229343,0.5327901,0.16924416,-3.490457,3
1.59E+12,-0.37293178,0.16471565,1.0325164,0.32385412,0.44214016,-3.51764,3
1.59E+12,-0.16620015,0.23226874,1.0174247,0.29507214,0.25825515,-2.820476,3
1.59E+12,-0.27519542,0.36114663,0.9908346,0.5471811,-0.042356845,-2.316791,3
1.59E+12,-0.14559886,0.3671354,0.9738266,0.08507013,-0.024767844,-1.5748551,3
1.59E+12,-0.15134805,0.44187498,0.8854326,0.23057912,-0.011442844,-1.0274642,3
1.59E+12,-0.119967,0.47541198,0.9218443,0.026440132,-0.13243385,-0.6842121,3
1.59E+12,-0.03061485,0.5223638,0.8756111,0.10798913,-0.17454085,0.0337389,3
1.59E+12,-0.028938001,0.530748,0.8861513,-0.022595868,0.11647716,0.7085169,3
1.59E+12,-0.0634332,0.54080915,0.887349,-0.21714087,0.30142817,1.3843609,3
1.59E+12,-0.18608281,0.528113,0.84446967,-0.19848588,0.41122615,2.093251,3
1.59E+12,-0.32238674,0.43205348,0.887349,-0.16064288,0.11754316,2.6928759,3
1.59E+12,-0.4701891,0.39228815,0.9045966,-0.16224188,-0.028498845,3.2466629,3
1.59E+12,-0.52265054,0.37216595,0.9697542,-0.15211488,-0.12763685,4.05096,3
1.59E+12,-0.7593259,0.073686644,1.1331273,-1.6439819,0.71716815,5.192646,3
1.59E+12,-0.72722626,-0.35702425,1.1280968,-2.3416789,0.5188921,5.160666,3
1.59E+12,-0.5914014,-1.2764171,0.9012429,-1.6242609,-0.24223185,4.058955,3
1.59E+12,-0.53941905,-2.0741186,0.87249696,-1.2762119,-0.20332284,1.5208089,3
1.59E+12,-0.56217635,-1.9490736,0.6533087,-0.7282878,-0.22997285,-1.2273391,3
1.59E+12,-0.596432,-1.3315136,0.47364622,0.39047912,0.09782216,-2.689358,3
1.59E+12,-0.5789448,-0.8231886,0.7136753,1.1585321,0.16284814,-3.471802,3
1.59E+12,-0.5844544,-0.50506616,0.88136035,1.1345471,0.20602114,-3.8294451,3
1.59E+12,-0.56337404,-0.2561737,0.90028477,1.2192941,0.24599615,-3.913659,3
1.59E+12,-0.5063611,-0.0530353,0.9795758,1.049267,0.24279815,-3.814521,3
1.59E+12,-0.383472,0.114170596,0.9412478,0.94799715,0.104751155,-3.55495,3
1.59E+12,-0.28837067,0.27107584,1.014071,0.9368042,-0.009843843,-2.8481922,3
1.59E+12,-0.2483658,0.336473,1.0054471,0.34890512,0.40696216,-2.3823502,3
1.59E+12,-0.1884783,0.4212737,0.9577767,0.50240916,-0.15535285,-1.5631291,3
1.59E+12,-0.12835124,0.47804704,0.9017221,0.71667516,-0.14149486,-1.0573121,3
1.59E+12,-0.06319365,0.4888268,1.0246112,0.41233212,-0.021569842,-0.4411641,3
1.59E+12,-0.079243496,0.5204474,0.9764617,0.03869913,-0.002914844,0.0108199,3
1.59E+12,-0.0275007,0.51206315,0.9113041,0.06801413,-0.13936284,0.5688709,3
1.59E+12,-0.0687033,0.5317062,0.9163346,-0.081225865,0.030664157,1.2990808,3
1.59E+12,-0.1664397,0.5053557,0.8907027,-0.31308088,0.25878817,1.9749249,3
1.59E+12,-0.28262144,0.46822548,0.88399535,-0.27470487,0.21454915,2.627317,3
1.59E+12,-0.38203472,0.3973187,0.9376546,-0.24485688,0.07756816,3.251993,3
1.59E+12,-0.4194045,0.32138136,1.0143106,-0.26084688,-0.052483846,3.847354,3
1.59E+12,-0.46180487,0.20927195,1.0792286,-0.67658687,0.35739318,4.9639893,3
1.59E+12,-0.67907673,-0.1320868,1.1618733,-1.5272549,0.6142991,5.0791173,3
1.59E+12,-0.54109585,-0.7726435,1.0025727,-1.2389019,0.22147815,4.360633,3
1.59E+12,-0.39904276,-1.6913178,1.0385051,-0.49803188,-0.54604185,2.45729,3
1.59E+12,-0.5300766,-1.871699,0.96544236,-0.66059685,-0.41012684,-0.37720412,3
1.59E+12,-0.5262438,-1.366488,0.74242127,-0.05404287,-0.15908384,-2.568367,3
1.59E+12,-0.5985879,-0.6811354,0.7807493,0.5743641,-0.09032684,-3.353476,3
1.59E+12,-0.54995924,-0.39127988,0.9434037,0.4666981,0.005080156,-3.72018,3
1.59E+12,-0.5267229,-0.18119456,0.92280245,0.5701001,0.11274616,-3.833709,3
1.59E+12,-0.42299777,0.04206605,0.9589745,0.71134514,0.11008116,-3.751094,3
1.59E+12,-0.26561338,0.1989713,1.0385051,0.5034751,0.23373716,-3.369466,3
1.59E+12,-0.21363106,0.34533635,1.033235,0.24390413,0.44960216,-2.860984,3
1.59E+12,-0.1424847,0.40187016,0.96807736,0.39954013,0.28543818,-2.2085922,3
1.59E+12,-0.13841234,0.44163546,0.96041185,0.4853531,-0.005579844,-1.7523441,3
1.59E+12,-0.067745104,0.54416287,1.0035307,0.5098711,-0.017838843,-1.0749011,3
1.59E+12,-0.043311,0.55134934,1.0775517,0.27215314,-0.091392845,-0.5157841,3
1.59E+12,0.052509,0.54488146,1.0191015,-0.17876488,-0.030630844,0.1760499,3
1.59E+12,0.056341797,0.51397955,0.9120227,-0.20648088,0.000283156,0.8316399,3
1.59E+12,0.00531765,0.48858723,0.87944394,-0.2576489,-0.080199845,1.5026869,3
1.59E+12,-0.17865674,0.42798108,0.81740046,-0.52947885,0.07703516,2.3672128,3
1.59E+12,-0.34107167,0.3781547,0.80686027,-0.45645788,-0.013041843,2.9337919,3
1.59E+12,-0.38203472,0.3163508,0.90387803,-0.23899387,-0.14575885,3.285039,3
1.59E+12,-0.3657453,0.27969965,0.9910742,0.115451135,-0.24383084,4.122382,3
1.59E+12,-0.618231,0.1251899,1.2181675,-0.5428038,0.74221915,4.854724,3
1.59E+12,-0.68937737,-0.22742769,1.2421225,-0.77679086,0.6084361,4.696956,3
1.59E+12,-0.53414893,-0.7771949,1.1585196,-0.7325519,-0.11591084,4.2476373,3
1.59E+12,-0.49438366,-1.5562116,0.94316417,-0.7799888,0.104218155,2.4093199,3
1.59E+12,-0.49582094,-1.8776877,0.82794064,-0.36318287,-0.25502384,-0.0899171,3
1.59E+12,-0.66206867,-1.4503305,0.7709278,0.33771214,-0.5886819,-2.050291,3
1.59E+12,-0.6544031,-0.93074644,0.9659215,0.21938613,-0.28806984,-3.1130931,3
1.59E+12,-0.6108049,-0.5043475,1.0013748,-0.051377866,0.18310215,-3.605052,3
1.59E+12,-0.5743934,-0.24826856,0.94100827,0.25989413,-0.12017484,-3.8651562,3
1.59E+12,-0.54397047,-0.015186401,0.9263957,0.70601517,-0.43144682,-3.9056642,3
1.59E+12,-0.44240132,0.15417545,1.0382655,0.25136614,0.06797416,-3.631169,3
1.59E+12,-0.19111335,0.33767074,0.99921894,-0.005539869,0.50236917,-3.2063682,3
1.59E+12,-0.0389991,0.43061614,0.9956257,0.23750812,0.07863416,-2.5315902,3
1.59E+12,-0.029417101,0.42630425,0.90842944,0.45870313,-0.38187784,-2.012448,3
1.59E+12,0.030470401,0.5017625,0.92328155,0.49867812,-0.28380585,-1.4384071,3
1.59E+12,0.06712155,0.53577864,0.9062735,0.45443913,-0.18573385,-0.7401771,3
1.59E+12,0.10401225,0.5654828,0.94412243,0.39527613,-0.19852585,-0.0195611,3
1.59E+12,0.11910389,0.5880005,0.925677,0.18527412,0.042390157,0.6648109,3
1.59E+12,0.09203475,0.58201176,0.9218443,0.020577133,0.28170717,1.3465179,3
1.59E+12,0.14257981,0.5618895,0.8763297,0.013648131,0.16604616,2.4434319,3
1.59E+12,-0.1108641,0.5214056,0.89453554,0.007785131,0.22147815,3.023336,3
1.59E+12,-0.2622597,0.4739747,0.9582559,-0.069499865,0.42828217,3.610169,3
1.59E+12,-0.47569877,0.37839425,1.0514408,-0.30828387,0.29076818,3.886263,3
1.59E+12,-0.55786437,0.31946495,1.1161193,-0.70057184,0.46026218,4.494416,3
1.59E+12,-0.7578887,0.080394045,1.0394633,-0.4996309,0.031730156,4.5802293,3
1.59E+12,-0.62948984,-0.6667624,1.2116997,-0.50016385,-0.39147183,3.901187,3
1.59E+12,-0.32837552,-1.4376342,1.1525309,-1.2026579,-0.071138844,2.934325,3
1.59E+12,-0.47042865,-1.8784063,0.8195564,-1.0869969,0.24173215,0.43135688,3
1.59E+12,-0.4711473,-1.5451922,0.71151936,-0.37277687,-0.34989783,-1.7539431,3
1.59E+12,-0.51115215,-1.0284829,0.71199846,0.17461413,-0.13882984,-2.715475,3
1.59E+12,-0.5837358,-0.6729907,0.89645195,0.023242133,0.38777417,-3.527234,3
1.59E+12,-0.5324721,-0.3500773,0.9192092,0.24337113,0.26145315,-3.9163241,3
1.59E+12,-0.4874367,-0.1790386,0.92663527,0.60208017,0.070106156,-3.9200552,3
1.59E+12,-0.45485792,0.05021075,1.032756,0.5727652,0.09462416,-3.941375,3
1.59E+12,-0.2483658,0.1913057,1.0650952,0.16555312,0.46132818,-3.555483,3
1.59E+12,-0.14511976,0.3585116,0.94795525,0.43898213,0.51089716,-3.0864432,3
1.59E+12,-0.00091065,0.37120777,1.0416192,0.54664814,0.070639156,-2.4399142,3
1.59E+12,-0.03636405,0.42295057,0.98748094,0.38141814,0.046654154,-1.98793,3
1.59E+12,0.0568209,0.45121747,0.9319054,0.31905714,0.29183418,-1.3302081,3
1.59E+12,0.047718,0.5755439,1.0397029,0.24070613,-0.042889845,0.1040949,3
1.59E+12,0.020409299,0.5434442,0.9941883,0.53332317,-0.041290846,-0.44915912,3
1.59E+12,0.104730904,0.5793767,1.0020936,0.052024134,0.025334157,0.8870719,3
1.59E+12,0.028554002,0.5626082,0.92591655,-0.06576887,0.15698515,1.5213419,3
1.59E+12,0.0103482,0.5352995,0.86267537,-0.055641867,0.26198617,2.215308,3
1.59E+12,-0.119967,0.45361295,0.8353667,-0.12599787,0.32861117,2.7770898,3
1.59E+12,-0.25627095,0.42151326,0.8013506,-0.03645387,0.43094715,3.351131,3
1.59E+12,-0.41796717,0.34102446,0.908669,0.41926113,0.048786156,3.6570728,3
1.59E+12,-0.47617784,0.26820126,1.1570823,0.036567133,0.49117616,4.469365,3
1.59E+12,-0.6872214,0.049013,1.2490696,-0.76506484,0.96288115,4.7198753,3
1.59E+12,-0.6431442,-0.3016882,1.2806902,-0.87273085,0.056248154,4.281216,3
1.59E+12,-0.44743186,-0.88115966,1.1376789,-0.83115685,-0.28647083,3.4641268,3
1.59E+12,-0.36167294,-1.5574093,1.033235,-0.41328487,-0.12816985,1.7921059,3
1.59E+12,-0.5137872,-1.6802984,1.0638974,-0.5619919,-0.80774486,-1.5999061,3
1.59E+12,-0.62398016,-0.9719491,0.88854676,-0.76080084,-0.18999785,-2.6856272,3
1.59E+12,-0.555948,-0.32037312,0.89764965,-0.6009008,0.19376215,-3.934446,3
1.59E+12,-0.57127917,-0.60759354,0.925677,-0.91430485,0.41549018,-3.413705,3
1.59E+12,-0.46084666,-0.14526205,0.8629149,0.08933413,0.09728916,-4.0239897,3
1.59E+12,-0.42156044,0.02338115,0.985325,0.11012113,0.37498218,-3.945106,3
1.59E+12,-0.3360411,0.20879285,1.0234134,0.33291513,0.22574215,-3.7878711,3
1.59E+12,-0.1420056,0.26053566,1.0159874,0.27481812,0.027466157,-3.371598,3
1.59E+12,-0.0696615,0.43349075,0.94005,0.51466817,0.13833015,-2.808217,3
1.59E+12,0.074787155,0.427502,0.98939735,0.21672112,0.32381415,-2.1265101,3
1.59E+12,0.104970455,0.49625286,0.8835162,0.44964212,0.07330416,-1.5167581,3
1.59E+12,0.15288046,0.50200206,0.9192092,0.61540514,0.07810116,-0.5131191,3
1.59E+12,0.15192226,0.54416287,1.059346,0.09679613,0.20975216,0.1264809,3
1.59E+12,0.12844636,0.5477561,0.9455597,-0.060438868,0.26465118,0.7671469,3
1.59E+12,0.08389005,0.5352995,0.91034585,-0.103078865,0.26198617,1.4403259,3
1.59E+12,-0.0231888,0.49625286,0.8586031,0.04989213,0.10848216,2.195587,3
1.59E+12,-0.17865674,0.4648718,0.89597285,0.26629013,0.006679156,2.8527758,3
1.59E+12,-0.29340118,0.3666563,1.004968,0.048293132,0.14685816,3.353263,3
1.59E+12,-0.2919639,0.37456146,1.023653,-0.21980588,0.36112416,4.175682,3
1.59E+12,-0.47330326,0.1989713,1.1470213,-0.5721188,0.63615215,4.904293,3
1.59E+12,-0.6340413,-0.093519256,1.1594778,-0.89085287,0.47625217,4.801424,3
1.59E+12,-0.53295124,-0.56734914,1.0591065,-0.41488388,0.23000616,4.421928,3
1.59E+12,-0.46659583,-1.3906825,1.1086932,-0.13026187,-0.016239844,2.8527758,3
1.59E+12,-0.51905733,-1.8154047,1.033235,0.24603613,-0.28593785,0.2810509,3
1.59E+12,-0.5631345,-1.5015942,1.1005485,-0.080159865,-0.77416587,-1.8536141,3
1.59E+12,-0.5442101,-0.95038956,0.9721497,-0.5571948,-0.29819682,-3.0006301,3
1.59E+12,-0.5849336,-0.41116256,0.93669635,-0.4927019,0.16338114,-3.8139882,3
1.59E+12,-0.49677914,-0.1555627,0.9311867,-0.16224188,0.030131157,-4.088483,3
1.59E+12,-0.393054,0.04637795,0.9364568,0.34730613,0.017339157,-4.010132,3
1.59E+12,-0.2785491,0.22556135,1.0916852,0.20872612,0.15005615,-3.719114,3
1.59E+12,-0.14871301,0.2804183,0.999698,0.115451135,0.20442215,-3.255404,3
1.59E+12,-0.053611647,0.4078589,0.97741985,0.24976712,0.20229015,-2.561438,3
1.59E+12,-0.01959555,0.36857268,0.89980567,0.13730413,0.29716417,-2.038032,3
1.59E+12,0.0343032,0.42893928,0.86315453,0.52213013,0.11594416,-1.4698541,3
1.59E+12,0.0352614,0.44403094,0.9165742,0.5040082,0.13086815,-0.9208641,3
1.59E+12,0.050832152,0.5012834,0.92471886,0.34410813,0.31795117,-0.4049201,3
1.59E+12,0.0769431,0.5561403,0.9429247,0.39634213,0.23213816,0.1984359,3
1.59E+12,0.066882,0.5913542,0.9891578,0.18260913,0.20495515,0.9110569,3
1.59E+12,0.0084318,0.5990198,0.92232335,-0.11746987,0.38884017,2.2968569,3
1.59E+12,-0.17530306,0.53793454,0.9690356,-0.10467787,0.23213816,3.0132089,3
1.59E+12,-0.2727999,0.47038144,1.018862,-0.31254786,-0.06687484,3.649611,3
1.59E+12,-0.36454755,0.38414344,1.0365887,-0.40102586,-0.102052845,4.331318,3
1.59E+12,-0.5525943,0.27251315,1.1209103,-1.0614129,0.39843416,4.93574,3
1.59E+12,-0.66662014,0.0279326,1.0375469,-1.2900699,0.29823017,4.9810452,3
1.59E+12,-0.70279217,-0.3888844,1.0289232,-0.8114358,-0.016772844,4.525863,3
1.59E+12,-0.5973901,-1.2725843,1.0274858,-0.3845029,-0.31365383,3.062778,3
1.59E+12,-0.484083,-1.7353948,0.94172686,-0.006605869,-0.27367884,1.1956788,3
1.59E+12,-0.61511683,-1.704972,0.9707125,-0.22673488,-0.5220569,-1.0994191,3
1.59E+12,-0.5473242,-1.1283753,0.82985705,-0.64034283,-0.24223185,-2.660043,3
1.59E+12,-0.51905733,-0.6852077,0.7342766,-0.33280188,0.15805115,-3.3588061,3
1.59E+12,-0.4855203,-0.3979873,0.8744134,0.006719132,0.20708714,-3.796399,3
1.59E+12,-0.393054,-0.1823923,0.98053396,0.18953812,0.20921916,-3.7793431,3
1.59E+12,-0.3599961,0.06889565,1.0387447,0.4395151,0.12553816,-3.7015252,3
1.59E+12,-0.2799864,0.14938445,1.0416192,0.34517413,0.16071615,-3.4520812,3
1.59E+12,-0.18967605,0.2832929,0.98005486,0.44910914,0.37338316,-3.039539,3
1.59E+12,-0.0893046,0.31084114,1.0210179,0.26309213,0.45599815,-2.550245,3
1.59E+12,-0.033729,0.39851645,0.9393314,0.27428514,0.37977916,-2.102525,3
1.59E+12,0.0553836,0.45217568,0.87129915,0.49707913,0.13619815,-1.4682552,3
1.59E+12,0.0836505,0.5031998,0.9045966,0.5434502,0.14685816,-0.9107371,3
1.59E+12,0.14186116,0.55374485,0.97933626,0.41286513,0.21348315,-0.2348931,3
1.59E+12,0.15886919,0.58105356,1.0222156,0.082938135,0.19536115,0.5496829,3
1.59E+12,0.1123965,0.5899169,0.99921894,-0.14038888,0.28863618,1.3657058,3
1.59E+12,0.017055599,0.57099247,0.9719102,-0.23099887,0.30782416,2.1241648,3
1.59E+12,-0.13266316,0.51853096,0.9594536,-0.16917087,0.08769516,2.7744248,3
1.59E+12,-0.2641761,0.44930106,1.0315582,-0.18089688,-0.13456585,3.3420699,3
1.59E+12,-0.44216174,0.3589907,1.1139634,-0.5369409,0.017339157,4.222053,3
1.59E+12,-0.5731956,0.24232987,1.1036627,-0.97293484,0.22201115,4.8467293,3
1.59E+12,-0.7404015,-0.0204565,1.0210179,-0.7138969,-0.35202983,4.787566,3
1.59E+12,-0.692252,-0.49979606,1.078989,-0.50709283,-0.23903385,4.396344,3
1.59E+12,-0.54085636,-1.199282,0.9702333,-0.68564785,-0.113245845,3.097956,3
1.59E+12,-0.43808943,-1.7310832,0.8868699,-0.38610187,-0.25289184,1.0848149,3
1.59E+12,-0.484083,-1.6297535,0.8339294,-0.26137987,-0.40906084,-1.2433292,3
1.59E+12,-0.48384348,-1.1427482,0.7893731,-0.29069486,-0.30565885,-2.515067,3
1.59E+12,-0.52552515,-0.7323991,0.83321077,-0.17023687,0.11754316,-3.382791,3
1.59E+12,-0.48480162,-0.3970291,0.9419664,-0.04764687,0.11967516,-3.836374,3
1.59E+12,-0.41581124,-0.17113344,0.9858041,0.035501134,0.21348315,-3.908862,3
1.59E+12,-0.3710154,0.0293699,0.9850855,0.2646911,0.24226515,-3.8822122,3
1.59E+12,-0.158295,0.22867551,1.0090405,0.21778713,0.28650418,-3.5959911,3
1.59E+12,-0.0447483,0.30461285,1.0471289,0.42725614,0.051984154,-2.8172781,3
1.59E+12,0.0261585,0.2626916,1.002333,0.2678891,0.008278156,-2.299735,3
1.59E+12,0.0400524,0.3455759,0.94915295,0.21885313,0.16284814,-1.7688671,3
1.59E+12,0.038135998,0.3862994,0.9055549,0.23644212,0.47145516,-1.3254111,3
1.59E+12,0.07861995,0.48714995,0.9601723,0.41926113,0.17510715,-0.76362914,3
1.59E+12,0.10017945,0.5079908,0.97502434,0.40273812,0.12180716,-0.2178371,3
1.59E+12,0.13802835,0.56212914,0.98796004,0.11971513,0.21188416,0.4201639,3
1.59E+12,0.1301232,0.56763875,0.9156159,-0.046047866,0.28490517,1.1429119,3
1.59E+12,0.074547604,0.5683574,0.8748924,-0.05724087,0.40429717,1.9717269,3
1.59E+12,-0.0342081,0.5305085,0.9187301,0.048293132,0.32168216,2.7317848,3
1.59E+12,-0.1736262,0.51853096,0.9829295,-0.079093866,0.19216315,3.297298,3
1.59E+12,-0.34682086,0.5405696,0.9520275,0.23537612,0.25132614,3.986467,3
1.59E+12,-0.47857338,0.3949232,1.1726531,-0.03218987,0.58391815,4.659113,3
1.59E+12,-0.7001571,0.1012349,1.2505069,-0.5763829,0.20655414,4.9176183,3
1.59E+12,-0.75860727,-0.5759729,1.1324087,-0.6158248,0.016806155,4.2625613,3
1.59E+12,-0.5971506,-1.3288786,1.0871338,-0.6264849,-0.16174886,2.765364,3
1.59E+12,-0.5851731,-1.7480911,0.9414873,-0.81036985,-0.31791782,0.39511287,3
1.59E+12,-0.4419222,-1.464464,0.8082975,-0.83168983,-0.24276485,-1.7123691,3
1.59E+12,-0.37700415,-0.98728025,0.7246946,-0.42767587,-0.029031845,-2.711744,3
1.59E+12,-0.4586907,-0.6246016,0.8780066,-0.15424688,0.17084315,-3.433959,3
1.59E+12,-0.48144794,-0.3443281,0.9453201,-0.08229187,0.25345817,-3.742566,3
1.59E+12,-0.51905733,-0.18981835,0.9647237,0.3553011,0.15538615,-3.8870091,3
1.59E+12,-0.46420035,0.019548351,1.0588669,0.45230713,-0.10525084,-3.9456391,3
1.59E+12,-0.3331665,0.17046484,1.024132,0.34091014,0.16284814,-3.739901,3
1.59E+12,-0.1827291,0.3254537,1.033235,0.46936312,0.18310215,-3.3396182,3
1.59E+12,-0.088106856,0.32425594,0.99993753,0.58022714,-0.032762844,-2.6792312,3
1.59E+12,-0.0107322,0.48283806,0.992751,0.41819513,-0.07700184,-2.040697,3
1.59E+12,0.016336951,0.52499884,0.9033989,0.3105291,0.20495515,-1.5300831,3
1.59E+12,0.0989817,0.5848864,0.9338218,0.43578413,0.037593156,-0.8382491,3
1.59E+12,0.1325187,0.62033975,0.97358704,0.20126413,0.043989155,-0.1965171,3
1.59E+12,0.1981554,0.6603446,0.944362,-0.004473869,0.043989155,0.6504199,3
1.59E+12,0.18306375,0.67855036,0.89764965,-0.10361187,0.24173215,1.4616458,3
1.59E+12,0.1603065,0.67112434,0.870341,-0.08495687,0.38724115,2.461021,3
1.59E+12,-0.038759552,0.64812756,0.8789648,0.11971513,0.41389117,3.3404708,3
1.59E+12,-0.29795265,0.5559008,1.0562317,-0.06470287,0.34620017,3.755678,3
1.59E+12,-0.5037261,0.49553418,1.1165984,-0.45752388,-0.013041843,4.012584,3
1.59E+12,-0.58780813,0.37887335,1.0842592,-0.43407187,-0.049285844,4.5487823,3
1.59E+12,-0.8189739,0.11728475,1.1383975,-0.71922684,0.27424517,4.830206,3
1.59E+12,-0.68314904,-0.6087913,1.0547945,-1.2031909,0.32754517,4.1255803,3
1.59E+12,-0.45413923,-1.364332,0.86698735,-0.43833587,-0.17827184,2.875695,3
1.59E+12,-0.48767623,-1.7430605,0.9192092,0.022709131,-0.41012684,0.7538219,3
1.59E+12,-0.41173893,-1.5674703,0.9501111,-0.4969659,-0.19426185,-1.5029001,3
1.59E+12,-0.3317292,-1.052917,0.7520033,-0.4729809,-0.07380384,-2.5278592,3
1.59E+12,-0.4428804,-0.7244939,0.7539197,-0.35145688,0.14952315,-3.1781192,3
1.59E+12,-0.53151387,-0.4511674,0.8288988,-0.08708887,0.50716615,-3.686068,3
1.59E+12,-0.54756373,-0.23724926,0.88710946,0.26842213,0.43307915,-3.8715522,3
